# *CALIBRATION************
# Voff:  -0.000557, -0.000502, 0.000355
# Oe*Vref/V:  18766.300781, 19118.269531, 18920.400390
# mV/Vref/Oe:  0.053287, 0.052306, 0.052853
# Hrel:  0.000000, 0.000000, 0.000000
# ADC Vref:  4.000000
# ADC Bits:  16
# ADC samples:  10
# ADC Speed:  4
# Linearization
# A0:  0.000000, 0.000000, 0.000000
# A1:  1.000000, 1.000000, 1.000000
# A2:  0.000000, 0.000000, 0.000000
# A3:  0.222500, 0.222500, 0.222500
# A4:  0.000000, 0.000000, 0.000000
# A5:  3.403000, 3.403000, 3.403000
# Orthogonalization
# 1.000000, 0.000000, 0.000000
# 0.000000, 1.000000, 0.000000
# 0.000000, 0.000000, 1.000000
# EEPROM Cal Valid, Valid, Valid
# EEPROM Lin Valid, Valid, Valid
# EEPROM Ortho Not Valid
# Sensor ID:   USB25103-1715507101             
# Software Version:  MDTUSBMAG3D.V9.20220510
# ************************
# 
# SENSOR_NB_SAMPLE: 10 
# SENSOR_GAIN: 1 
# SENSOR_READ_DELAY: 0.7 
# SENSOR_Oe_mT: 0.1 
# working dist: 5 mm
# Rotation step angle: 1.2°
#
# angle[°]
  0.0
  1.2
  2.4
  3.6
  4.8
  6.0
  7.2
  8.4
  9.6
 10.8
 12.0
 13.2
 14.4
 15.6
 16.8
 18.0
 19.2
 20.4
 21.6
 22.8
 24.0
 25.2
 26.4
 27.6
 28.8
 30.0
 31.2
 32.4
 33.6
 34.8
 36.0
 37.2
 38.4
 39.6
 40.8
 42.0
 43.2
 44.4
 45.6
 46.8
 48.0
 49.2
 50.4
 51.6
 52.8
 54.0
 55.2
 56.4
 57.6
 58.8
 60.0
 61.2
 62.4
 63.6
 64.8
 66.0
 67.2
 68.4
 69.6
 70.8
 72.0
 73.2
 74.4
 75.6
 76.8
 78.0
 79.2
 80.4
 81.6
 82.8
 84.0
 85.2
 86.4
 87.6
 88.8
 90.0
 91.2
 92.4
 93.6
 94.8
 96.0
 97.2
 98.4
 99.6
100.8
102.0
103.2
104.4
105.6
106.8
108.0
109.2
110.4
111.6
112.8
114.0
115.2
116.4
117.6
118.8
120.0
121.2
122.4
123.6
124.8
126.0
127.2
128.4
129.6
130.8
132.0
133.2
134.4
135.6
136.8
138.0
139.2
140.4
141.6
142.8
144.0
145.2
146.4
147.6
148.8
150.0
151.2
152.4
153.6
154.8
156.0
157.2
158.4
159.6
160.8
162.0
163.2
164.4
165.6
166.8
168.0
169.2
170.4
171.6
172.8
174.0
175.2
176.4
177.6
178.8
180.0
181.2
182.4
183.6
184.8
186.0
187.2
188.4
189.6
190.8
192.0
193.2
194.4
195.6
196.8
198.0
199.2
200.4
201.6
202.8
204.0
205.2
206.4
207.6
208.8
210.0
211.2
212.4
213.6
214.8
216.0
217.2
218.4
219.6
220.8
222.0
223.2
224.4
225.6
226.8
228.0
229.2
230.4
231.6
232.8
234.0
235.2
236.4
237.6
238.8
240.0
241.2
242.4
243.6
244.8
246.0
247.2
248.4
249.6
250.8
252.0
253.2
254.4
255.6
256.8
258.0
259.2
260.4
261.6
262.8
264.0
265.2
266.4
267.6
268.8
270.0
271.2
272.4
273.6
274.8
276.0
277.2
278.4
279.6
280.8
282.0
283.2
284.4
285.6
286.8
288.0
289.2
290.4
291.6
292.8
294.0
295.2
296.4
297.6
298.8
300.0
301.2
302.4
303.6
304.8
306.0
307.2
308.4
309.6
310.8
312.0
313.2
314.4
315.6
316.8
318.0
319.2
320.4
321.6
322.8
324.0
325.2
326.4
327.6
328.8
330.0
331.2
332.4
333.6
334.8
336.0
337.2
338.4
339.6
340.8
342.0
343.2
344.4
345.6
346.8
348.0
349.2
350.4
351.6
352.8
354.0
355.2
356.4
357.6
358.8
