# *CALIBRATION************
# Voff:  -0.000557, -0.000502, 0.000355
# Oe*Vref/V:  18766.300781, 19118.269531, 18920.400390
# mV/Vref/Oe:  0.053287, 0.052306, 0.052853
# Hrel:  0.000000, 0.000000, 0.000000
# ADC Vref:  4.000000
# ADC Bits:  16
# ADC samples:  10
# ADC Speed:  4
# Linearization
# A0:  0.000000, 0.000000, 0.000000
# A1:  1.000000, 1.000000, 1.000000
# A2:  0.000000, 0.000000, 0.000000
# A3:  0.222500, 0.222500, 0.222500
# A4:  0.000000, 0.000000, 0.000000
# A5:  3.403000, 3.403000, 3.403000
# Orthogonalization
# 1.000000, 0.000000, 0.000000
# 0.000000, 1.000000, 0.000000
# 0.000000, 0.000000, 1.000000
# EEPROM Cal Valid, Valid, Valid
# EEPROM Lin Valid, Valid, Valid
# EEPROM Ortho Not Valid
# Sensor ID:   USB25103-1715507101             
# Software Version:  MDTUSBMAG3D.V9.20220510
# ************************
# 
# SENSOR_NB_SAMPLE: 10 
# SENSOR_GAIN: 1 
# SENSOR_READ_DELAY: 0.7 
# SENSOR_Oe_mT: 0.1 
# working dist: 1 mm
# Rotation step angle: 1.2°
# sensor pos #1: 15 mm
# sensor pos #2: 40 mm
# sensor pos #3: 65 mm
# sensor pos #4: 85 mm
#
# angle[°]; X1_magn [mT]; Y1_magn [mT]; Z1_magn [mT]; X2_magn [mT]; Y2_magn [mT]; Z2_magn [mT]; X3_magn [mT]; Y3_magn [mT]; Z3_magn [mT]; X4_magn [mT]; Y4_magn [mT]; Z4_magn [mT]
  0.0;   20.911000;   -1.828100;   -0.361630;   23.619000;    0.606500;   -0.346110;   23.161000;    2.382400;    0.891850;   20.699000;    3.665100;    2.110200
  1.2;   19.998000;    3.580700;    2.923600;   21.904000;    2.375700;    2.466800;   22.959000;    0.818220;    0.544850;   20.382000;   -1.659300;    0.386320
  2.4;   19.892000;   -1.494300;    1.226600;   22.340000;    0.912310;    1.460200;   21.704000;    2.405900;    2.555100;   19.202000;    3.490700;    3.732500
  3.6;   18.289000;    3.370800;    4.571400;   20.286000;    2.377900;    4.225800;   21.617000;    1.015700;    2.401800;   19.299000;   -1.300800;    2.044400
  4.8;   18.629000;   -1.124200;    2.901800;   20.769000;    1.121400;    3.355600;   20.014000;    2.396200;    4.269400;   17.300000;    3.236400;    5.380600
  6.0;   16.227000;    3.089600;    6.184800;   18.212000;    2.342800;    6.005900;   19.873000;    1.212900;    4.264300;   17.871000;   -0.893840;    3.725100
  7.2;   17.062000;   -0.677640;    4.526600;   18.894000;    1.340200;    5.177000;   18.080000;    2.379000;    5.872100;   15.140000;    2.959700;    6.925300
  8.4;   13.970000;    2.787500;    7.619700;   16.002000;    2.299100;    7.575000;   17.872000;    1.435800;    5.994800;   16.212000;   -0.472270;    5.266500
  9.6;   15.281000;   -0.238140;    6.012200;   16.773000;    1.537400;    6.806000;   15.698000;    2.308500;    7.568300;   12.860000;    2.636700;    8.256400
 10.8;   11.546000;    2.440700;    8.922000;   13.447000;    2.210300;    9.079000;   15.571000;    1.643400;    7.621500;   14.264000;    0.004944;    6.725800
 12.0;   13.187000;    0.254380;    7.435700;   14.310000;    1.735700;    8.399400;   12.683000;    2.211400;    9.371000;   10.082000;    2.194600;    9.556900
 13.2;    8.733300;    1.982500;   10.102000;   10.591000;    2.066900;   10.437000;   13.016000;    1.819300;    9.113400;   12.087000;    0.501200;    8.073900
 14.4;   10.979000;    0.739800;    8.677300;   11.719000;    1.920900;    9.769700;   10.203000;    2.103800;   10.477000;    7.415200;    1.816700;   10.604000
 15.6;    6.010300;    1.584400;   11.068000;    7.766700;    1.930200;   11.522000;   10.349000;    2.003400;   10.423000;    9.797700;    0.954140;    9.250100
 16.8;    8.551500;    1.241700;    9.798200;    8.908500;    2.074700;   11.002000;    7.400200;    1.987300;   11.563000;    4.598800;    1.392900;   11.516000
 18.0;    3.148400;    1.148700;   11.895000;    4.744700;    1.769700;   12.461000;    7.418200;    2.125100;   11.564000;    7.242600;    1.487400;   10.295000
 19.2;    5.953100;    1.731200;   10.742000;    5.922300;    2.213600;   12.056000;    4.561800;    1.830900;   12.471000;    1.702500;    0.954510;   12.241000
 20.4;    0.243680;    0.699470;   12.514000;    1.674600;    1.582600;   13.209000;    4.473100;    2.260700;   12.518000;    4.687500;    1.953000;   11.155000
 21.6;    3.364300;    2.180800;   11.538000;    2.962600;    2.308800;   12.908000;    1.389100;    1.653500;   13.306000;   -1.231600;    0.467590;   12.764000
 22.8;   -2.723000;    0.231970;   12.956000;   -1.464000;    1.362600;   13.771000;    1.387300;    2.356300;   13.309000;    1.995000;    2.393600;   11.862000
 24.0;    0.606180;    2.624400;   12.164000;   -0.184790;    2.335400;   13.610000;   -2.310700;    1.401100;   13.959000;   -4.232000;   -0.042852;   13.061000
 25.2;   -5.676500;   -0.272500;   13.157000;   -4.654600;    1.119600;   14.093000;   -1.734100;    2.261400;   13.868000;   -0.746680;    2.806600;   12.406000
 26.4;   -2.049000;    2.998900;   12.589000;   -3.191800;    2.434300;   14.073000;   -4.802300;    1.218100;   14.309000;   -6.989800;   -0.440150;   13.238000
 27.6;   -8.362100;   -0.665320;   13.225000;   -7.554600;    0.918290;   14.232000;   -4.693500;    2.449600;   14.278000;   -3.380600;    3.177400;   12.750000
 28.8;   -4.731200;    3.354000;   12.850000;   -6.216800;    2.452600;   14.351000;   -7.903900;    1.001900;   14.479000;   -9.754200;   -0.909150;   13.149000
 30.0;  -11.078000;   -1.121600;   13.040000;  -10.421000;    0.705820;   14.176000;   -7.707100;    2.447000;   14.417000;   -6.083400;    3.516800;   12.892000
 31.2;   -7.364800;    3.687500;   12.889000;   -9.142800;    2.442900;   14.388000;  -10.824000;    0.753620;   14.409000;  -12.332000;   -1.284800;   12.937000
 32.4;  -13.516000;   -1.487600;   12.701000;  -13.109000;    0.473190;   13.884000;  -10.512000;    2.436900;   14.344000;   -8.590100;    3.812900;   12.853000
 33.6;   -9.800400;    3.945900;   12.747000;  -11.868000;    2.448900;   14.194000;  -13.479000;    0.532940;   14.107000;  -14.648000;   -1.642100;   12.461000
 34.8;  -15.782000;   -1.860600;   12.105000;  -15.657000;    0.227120;   13.300000;  -13.229000;    2.393200;   14.015000;  -11.011000;    4.068700;   12.585000
 36.0;  -12.189000;    4.120600;   12.371000;  -14.482000;    2.372700;   13.748000;  -16.397000;    0.208450;   13.282000;  -16.817000;   -2.031600;   11.658000
 37.2;  -17.781000;   -2.224300;   11.227000;  -17.944000;   -0.010366;   12.437000;  -15.703000;    2.324500;   13.441000;  -13.295000;    4.275600;   12.118000
 38.4;  -14.315000;    4.353200;   11.811000;  -16.796000;    2.292000;   13.075000;  -18.280000;    0.055727;   12.683000;  -18.630000;   -2.319500;   10.803000
 39.6;  -19.450000;   -2.460300;   10.283000;  -19.831000;   -0.211260;   11.494000;  -17.843000;    2.266700;   12.669000;  -15.303000;    4.414500;   11.452000
 40.8;  -16.241000;    4.488000;   11.026000;  -18.851000;    2.208000;   12.163000;  -20.149000;   -0.165700;   11.708000;  -20.164000;   -2.603300;    9.661800
 42.0;  -20.812000;   -2.720900;    9.043600;  -21.443000;   -0.394220;   10.283000;  -19.798000;    2.150900;   11.646000;  -17.112000;    4.535100;   10.571000
 43.2;  -17.909000;    4.577300;   10.066000;  -20.605000;    2.110900;   11.023000;  -21.643000;   -0.340830;   10.570000;  -21.392000;   -2.780300;    8.453400
 44.4;  -21.844000;   -2.885900;    7.743500;  -22.688000;   -0.573830;    8.923800;  -21.328000;    2.035100;   10.432000;  -18.578000;    4.591100;    9.528000
 45.6;  -19.236000;    4.602700;    8.945600;  -21.992000;    1.983200;    9.736100;  -22.840000;   -0.520810;    9.196200;  -22.228000;   -2.940100;    7.052500
 46.8;  -22.531000;   -3.025200;    6.247200;  -23.564000;   -0.738500;    7.381700;  -22.565000;    1.898500;    8.999600;  -19.824000;    4.594500;    8.324800
 48.0;  -20.307000;    4.593700;    7.620800;  -23.049000;    1.832800;    8.208000;  -23.765000;   -0.735890;    7.127500;  -22.650000;   -3.084200;    5.333000
 49.2;  -22.747000;   -3.139500;    4.499700;  -24.035000;   -0.878900;    5.542100;  -23.435000;    1.742800;    7.391300;  -20.715000;    4.559400;    6.924200
 50.4;  -21.043000;    4.539200;    6.191800;  -23.701000;    1.686000;    6.552100;  -24.157000;   -0.861730;    5.640400;  -22.792000;   -3.148100;    3.711800
 51.6;  -22.710000;   -3.174200;    2.840800;  -24.134000;   -1.018600;    3.732900;  -23.906000;    1.601200;    5.692500;  -21.284000;    4.486500;    5.446800
 52.8;  -21.429000;    4.425300;    4.635300;  -24.004000;    1.486600;    4.750600;  -24.200000;   -0.965160;    4.017400;  -22.539000;   -3.141000;    1.949100
 54.0;  -22.263000;   -3.149200;    1.041100;  -23.862000;   -1.111200;    1.865600;  -24.009000;    1.415300;    3.814900;  -21.504000;    4.340200;    3.814200
 55.2;  -21.487000;    4.252000;    2.964600;  -23.890000;    1.323800;    2.832700;  -23.880000;   -1.097300;    2.117600;  -21.944000;   -3.105500;    0.132810
 56.4;  -21.512000;   -3.089100;   -0.759250;  -23.237000;   -1.185500;   -0.050848;  -23.701000;    1.236100;    1.912900;  -21.396000;    4.145200;    2.158300
 57.6;  -21.223000;    4.020900;    1.298000;  -23.439000;    1.155000;    0.937300;  -23.161000;   -1.170900;    0.082924;  -21.005000;   -3.028600;   -1.661300
 58.8;  -20.374000;   -2.980000;   -2.578900;  -22.202000;   -1.247500;   -2.031600;  -23.051000;    1.028100;   -0.070064;  -20.946000;    3.915600;    0.412550
 60.0;  -20.585000;    3.753500;   -0.455120;  -22.562000;    0.918660;   -1.068600;  -21.866000;   -1.246700;   -2.369000;  -19.603000;   -2.876600;   -3.516400
 61.2;  -18.821000;   -2.783600;   -4.390000;  -20.762000;   -1.248600;   -4.004900;  -22.011000;    0.832030;   -2.040100;  -20.160000;    3.596700;   -1.320600
 62.4;  -19.677000;    3.426800;   -2.152000;  -21.387000;    0.660270;   -3.014200;  -20.613000;   -1.290800;   -3.925500;  -18.012000;   -2.684700;   -5.227000
 63.6;  -17.118000;   -2.569300;   -6.051800;  -19.110000;   -1.256000;   -5.807500;  -20.632000;    0.647950;   -3.927300;  -19.083000;    3.245000;   -2.989800
 64.8;  -18.404000;    3.041500;   -3.843100;  -19.809000;    0.532940;   -4.877800;  -18.893000;   -1.293400;   -5.717400;  -16.133000;   -2.442300;   -6.865900
 66.0;  -15.035000;   -2.301900;   -7.660400;  -17.020000;   -1.229500;   -7.588400;  -18.897000;    0.411210;   -5.800900;  -17.640000;    2.825300;   -4.667100
 67.2;  -16.824000;    2.549300;   -5.466800;  -17.926000;    0.314500;   -6.686700;  -16.746000;   -1.263100;   -7.568400;  -13.927000;   -2.136900;   -8.413900
 68.4;  -12.791000;   -1.981600;   -9.103900;  -14.756000;   -1.174600;   -9.177800;  -16.908000;    0.202100;   -7.514100;  -15.988000;    2.323000;   -6.217400
 69.6;  -15.079000;    2.147500;   -6.952800;  -15.793000;    0.101280;   -8.331100;  -14.408000;   -1.211200;   -9.200300;  -11.594000;   -1.823200;   -9.756500
 70.8;  -10.306000;   -1.625700;  -10.401000;  -12.192000;   -1.071600;  -10.654000;  -14.610000;    0.004570;   -9.116800;  -14.047000;    1.915300;   -7.658600
 72.0;  -12.971000;    1.625900;   -8.347000;  -13.353000;   -0.087660;   -9.872100;  -11.601000;   -1.105900;  -10.838000;   -8.848900;   -1.363200;  -11.012000
 73.2;   -7.515800;   -1.159000;  -11.547000;   -9.327900;   -0.938270;  -11.979000;  -12.068000;   -0.184370;  -10.575000;  -11.874000;    1.413000;   -8.971600
 74.4;  -10.747000;    1.144900;   -9.567300;  -10.740000;   -0.277350;  -11.234000;   -8.863900;   -0.992790;  -12.087000;   -6.212400;   -0.974120;  -12.033000
 75.6;   -4.813700;   -0.762030;  -12.471000;   -6.570500;   -0.828120;  -13.042000;   -9.388800;   -0.360620;  -11.827000;   -9.581600;    0.903730;  -10.122000
 76.8;   -8.341600;    0.638980;  -10.661000;   -7.956000;   -0.439030;  -12.413000;   -6.125500;   -0.873680;  -13.089000;   -3.387500;   -0.538730;  -12.871000
 78.0;   -1.917000;   -0.309460;  -13.236000;   -3.505200;   -0.671290;  -13.954000;   -6.472600;   -0.514460;  -12.946000;   -7.040400;    0.387680;  -11.151000
 79.2;   -5.749400;    0.113980;  -11.603000;   -4.986000;   -0.596610;  -13.418000;   -3.157700;   -0.714230;  -14.006000;   -0.494140;   -0.102600;  -13.544000
 80.4;    1.001700;    0.139370;  -13.831000;   -0.456020;   -0.452480;  -14.653000;   -3.536000;   -0.738500;  -13.879000;   -4.470600;   -0.096622;  -11.990000
 81.6;   -3.151500;   -0.352780;  -12.337000;   -2.018900;   -0.714980;  -14.245000;   -0.123580;   -0.544330;  -14.738000;    2.366300;    0.333170;  -14.056000
 82.8;    3.839300;    0.579240;  -14.230000;    2.639700;   -0.280710;  -15.174000;   -0.476180;   -0.794510;  -14.591000;   -1.780300;   -0.573090;  -12.660000
 84.0;   -0.407640;   -0.793770;  -12.959000;    1.088900;   -0.808700;  -14.900000;    3.466200;   -0.276600;  -15.336000;    5.350500;    0.870870;  -14.315000
 85.2;    6.826200;    1.102800;  -14.391000;    5.761400;   -0.035757;  -15.472000;    2.630200;   -0.828490;  -15.139000;    0.957680;   -1.028300;  -13.181000
 86.4;    2.266900;   -1.228800;  -13.361000;    4.091100;   -0.857250;  -15.305000;    6.290300;   -0.114550;  -15.651000;    8.105800;    1.252500;  -14.460000
 87.6;    9.477300;    1.473900;  -14.439000;    8.702500;    0.177830;  -15.559000;    5.602000;   -0.861730;  -15.463000;    3.604400;   -1.404700;  -13.479000
 88.8;    4.956900;   -1.594700;  -13.576000;    7.115800;   -0.889730;  -15.558000;    9.036000;    0.094187;  -15.798000;   10.834000;    1.696100;  -14.354000
 90.0;   12.164000;    1.912300;  -14.224000;   11.598000;    0.409710;  -15.462000;    8.629200;   -0.877410;  -15.598000;    6.302800;   -1.753800;  -13.627000
 91.2;    7.606200;   -1.921800;  -13.626000;   10.054000;   -0.881140;  -15.571000;   12.069000;    0.343250;  -15.681000;   13.398000;    2.085500;  -14.062000
 92.4;   14.589000;    2.280800;  -13.832000;   14.287000;    0.624790;  -15.124000;   11.420000;   -0.863220;  -15.510000;    8.831100;   -2.050300;  -13.576000
 93.6;   10.044000;   -2.193300;  -13.469000;   12.750000;   -0.965530;  -15.419000;   14.703000;    0.568780;  -15.376000;   15.722000;    2.460400;  -13.557000
 94.8;   16.843000;    2.650500;  -13.226000;   16.791000;    0.876840;  -14.579000;   14.114000;   -0.807960;  -15.181000;   11.234000;   -2.276900;  -13.317000
 96.0;   12.378000;   -2.415100;  -13.087000;   15.386000;   -0.794140;  -14.947000;   17.464000;    0.838380;  -14.621000;   17.868000;    2.865600;  -12.762000
 97.2;   18.817000;    3.029900;  -12.333000;   19.057000;    1.102000;  -13.732000;   16.740000;   -0.726930;  -14.523000;   13.511000;   -2.484500;  -12.859000
 98.4;   14.541000;   -2.575300;  -12.542000;   17.687000;   -0.723940;  -14.265000;   19.431000;    1.025800;  -13.980000;   19.669000;    3.123200;  -11.921000
 99.6;   20.463000;    3.252100;  -11.416000;   20.925000;    1.292400;  -12.804000;   18.736000;   -0.652990;  -13.873000;   15.538000;   -2.632000;  -12.195000
100.8;   16.471000;   -2.709000;  -11.768000;   19.734000;   -0.619010;  -13.381000;   21.296000;    1.245000;  -13.012000;   21.184000;    3.382000;  -10.819000
102.0;   21.819000;    3.503000;  -10.196000;   22.559000;    1.502300;  -11.590000;   20.667000;   -0.534250;  -12.848000;   17.322000;   -2.732900;  -11.314000
103.2;   18.115000;   -2.770900;  -10.812000;   21.479000;   -0.497280;  -12.246000;   22.861000;    1.445900;  -11.773000;   22.377000;    3.589200;   -9.548800
104.4;   22.819000;    3.670300;   -8.875500;   23.787000;    1.688200;  -10.250000;   22.219000;   -0.404680;  -11.672000;   18.844000;   -2.859800;  -10.308000
105.6;   19.469000;   -2.773900;   -9.701000;   22.853000;   -0.334480;  -10.993000;   23.984000;    1.628500;  -10.514000;   23.201000;    3.739400;   -8.177400
106.8;   23.478000;    3.807700;   -7.415000;   24.657000;    1.849600;   -8.678100;   23.426000;   -0.265400;  -10.265000;   20.043000;   -2.776200;   -9.093900
108.0;   20.510000;   -2.752300;   -8.404300;   23.912000;   -0.201180;   -9.480800;   24.849000;    1.835000;   -8.633100;   23.562000;    3.891300;   -6.487900
109.2;   23.655000;    3.940200;   -5.676400;   25.146000;    2.011200;   -6.986700;   24.295000;   -0.099236;   -8.702500;   20.920000;   -2.699200;   -7.719200
110.4;   21.230000;   -2.646200;   -7.002600;   24.587000;   -0.017834;   -7.887000;   25.271000;    1.976100;   -7.131600;   23.693000;    3.945100;   -4.916600
111.6;   23.661000;    3.967100;   -4.070000;   25.251000;    2.122500;   -5.244400;   24.756000;    0.063942;   -7.016300;   21.472000;   -2.576800;   -6.261000
112.8;   21.640000;   -2.515200;   -5.470100;   24.851000;    0.142730;   -6.111700;   25.301000;    2.097900;   -5.386300;   23.490000;    3.940600;   -3.250000
114.0;   23.231000;    3.916000;   -2.338700;   24.937000;    2.237200;   -3.325000;   24.845000;    0.261470;   -5.203300;   21.680000;   -2.418100;   -4.657900
115.2;   21.669000;   -2.327300;   -3.813100;   24.750000;    0.362290;   -4.245500;   24.974000;    2.209500;   -3.541900;   22.863000;    3.909300;   -1.454700
116.4;   22.426000;    3.850300;   -0.585940;   24.294000;    2.307700;   -1.418100;   24.553000;    0.435850;   -3.327600;   21.556000;   -2.204100;   -3.020800
117.6;   21.374000;   -2.080900;   -2.172000;   24.283000;    0.551610;   -2.374500;   24.220000;    2.321900;   -1.427000;   21.952000;    3.815900;    0.286910
118.8;   21.323000;    3.742300;    1.214500;   23.268000;    2.370500;    0.483140;   23.885000;    0.665870;   -1.392300;   21.117000;   -1.922600;   -1.324600
120.0;   20.737000;   -1.801600;   -0.433690;   23.401000;    0.752120;   -0.412630;   22.954000;    2.376400;    0.785420;   20.473000;    3.636300;    2.172700
121.2;   19.686000;    3.528400;    3.042200;   21.796000;    2.399200;    2.495300;   22.836000;    0.860410;    0.557780;   20.319000;   -1.605900;    0.404050
122.4;   19.814000;   -1.437900;    1.239200;   22.202000;    0.956750;    1.509000;   21.695000;    2.401100;    2.392200;   18.878000;    3.426400;    3.844100
123.6;   17.968000;    3.308400;    4.676700;   20.086000;    2.386100;    4.295700;   21.466000;    1.053100;    2.438400;   19.243000;   -1.258300;    2.069200
124.8;   18.554000;   -1.055900;    2.925800;   20.633000;    1.158400;    3.399200;   19.943000;    2.417100;    4.210300;   17.043000;    3.199000;    5.466400
126.0;   15.973000;    3.053400;    6.243900;   18.058000;    2.350300;    6.048000;   19.724000;    1.257700;    4.302300;   17.804000;   -0.857990;    3.735500
127.2;   16.991000;   -0.625730;    4.530700;   18.753000;    1.385800;    5.195100;   17.847000;    2.386500;    5.961900;   14.809000;    2.882000;    6.995200
128.4;   13.668000;    2.730800;    7.674800;   15.762000;    2.298000;    7.647000;   17.710000;    1.478000;    6.035100;   16.136000;   -0.402440;    5.284600
129.6;   15.205000;   -0.174290;    6.014800;   16.637000;    1.585600;    6.837400;   15.421000;    2.328600;    7.703600;   12.505000;    2.579900;    8.335100
130.8;   11.213000;    2.389100;    8.974800;   13.226000;    2.214000;    9.113800;   15.430000;    1.676300;    7.637800;   14.193000;    0.060581;    6.739500
132.0;   13.120000;    0.302550;    7.437900;   14.173000;    1.781200;    8.406100;   12.747000;    2.237900;    9.232400;    9.708300;    2.093400;    9.596000
133.2;    8.339600;    1.876800;   10.137000;   10.319000;    2.063500;   10.459000;   12.862000;    1.869000;    9.113800;   12.004000;    0.554220;    8.074200
134.4;   10.900000;    0.767810;    8.662600;   11.574000;    1.945900;    9.767500;    9.949100;    2.121400;   10.538000;    7.040300;    1.701300;   10.613000
135.6;    5.660300;    1.475400;   11.052000;    7.651300;    1.956700;   11.500000;   10.203000;    2.013900;   10.392000;    9.712300;    1.031100;    9.228300
136.8;    8.477800;    1.293900;    9.778900;    8.771400;    2.103800;   10.982000;    7.065900;    1.995900;   11.640000;    4.281700;    1.301400;   11.491000
138.0;    2.820400;    1.072100;   11.864000;    4.552600;    1.780500;   12.472000;    7.288400;    2.167300;   11.547000;    7.199300;    1.524300;   10.277000
139.2;    5.897800;    1.759200;   10.738000;    5.804700;    2.236000;   12.038000;    4.102100;    1.830900;   12.582000;    1.409200;    0.880580;   12.203000
140.4;   -0.018019;    0.650560;   12.480000;    1.539400;    1.605000;   13.203000;    4.353900;    2.290500;   12.504000;    4.629600;    1.991500;   11.130000
141.6;    3.314500;    2.230800;   11.502000;    2.859200;    2.339100;   12.891000;    1.024800;    1.638200;   13.332000;   -1.462500;    0.420170;   12.699000
142.8;   -2.902600;    0.199490;   12.880000;   -1.568100;    1.389900;   13.737000;    1.298200;    2.302500;   13.259000;    1.953500;    2.433600;   11.839000
144.0;    0.577960;    2.630300;   12.133000;   -0.251860;    2.395800;   13.576000;   -2.445900;    1.396600;   13.917000;   -4.473200;   -0.127240;   12.977000
145.2;   -5.907400;   -0.366220;   13.056000;   -4.712200;    1.152000;   14.074000;   -1.784000;    2.426800;   13.860000;   -0.778570;    2.833900;   12.376000
146.4;   -2.102800;    3.035100;   12.561000;   -3.265100;    2.458200;   14.045000;   -4.993300;    1.237200;   14.263000;   -7.209000;   -0.495040;   13.137000
147.6;   -8.525600;   -0.730290;   13.129000;   -7.679200;    0.926880;   14.182000;   -4.759100;    2.466400;   14.225000;   -3.409500;    3.192300;   12.717000
148.8;   -4.761600;    3.359200;   12.810000;   -6.279800;    2.481700;   14.316000;   -8.093800;    0.995960;   14.416000;   -9.884700;   -0.909900;   13.075000
150.0;  -11.201000;   -1.132800;   12.953000;  -10.542000;    0.700970;   14.104000;   -7.784100;    2.379800;   14.379000;   -6.089200;    3.513800;   12.848000
151.2;   -7.385700;    3.674400;   12.860000;   -9.212800;    2.479900;   14.344000;  -10.867000;    0.774160;   14.355000;  -12.471000;   -1.335200;   12.780000
152.4;  -13.640000;   -1.536500;   12.561000;  -13.190000;    0.475810;   13.784000;  -10.569000;    2.441800;   14.287000;   -8.619400;    3.815200;   12.801000
153.6;   -9.809200;    3.948500;   12.693000;  -11.912000;    2.442500;   14.136000;  -13.499000;    0.564300;   14.072000;  -14.763000;   -1.678400;   12.294000
154.8;  -15.878000;   -1.868000;   11.974000;  -15.700000;    0.210690;   13.217000;  -13.237000;    2.407100;   13.963000;  -11.025000;    4.069800;   12.544000
156.0;  -12.196000;    4.139300;   12.323000;  -14.498000;    2.382400;   13.695000;  -16.352000;    0.256620;   13.239000;  -16.884000;   -2.120100;   11.456000
157.2;  -17.815000;   -2.279500;   11.022000;  -17.929000;    0.005317;   12.383000;  -15.702000;    2.333500;   13.393000;  -13.291000;    4.259900;   12.072000
158.4;  -14.315000;    4.365200;   11.767000;  -16.781000;    2.315200;   13.013000;  -18.372000;    0.043404;   12.514000;  -18.654000;   -2.340400;   10.630000
159.6;  -19.433000;   -2.495700;   10.098000;  -19.811000;   -0.191470;   11.433000;  -17.834000;    2.262500;   12.613000;  -15.308000;    4.429800;   11.402000
160.8;  -16.231000;    4.488000;   10.983000;  -18.838000;    2.231900;   12.106000;  -20.042000;   -0.128730;   11.701000;  -20.138000;   -2.601800;    9.531400
162.0;  -20.781000;   -2.716800;    8.903100;  -21.425000;   -0.394970;   10.201000;  -19.762000;    2.138200;   11.586000;  -17.100000;    4.522000;   10.534000
163.2;  -17.900000;    4.570600;   10.024000;  -20.577000;    2.100100;   10.957000;  -21.673000;   -0.334110;   10.367000;  -21.326000;   -2.774700;    8.252400
164.4;  -21.756000;   -2.884800;    7.575000;  -22.644000;   -0.573090;    8.823700;  -21.285000;    2.016100;   10.356000;  -18.591000;    4.557500;    9.507000
165.6;  -19.218000;    4.589600;    8.915000;  -21.923000;    1.970200;    9.674400;  -22.862000;   -0.541350;    8.846200;  -22.106000;   -2.952000;    6.841400
166.8;  -22.385000;   -3.013300;    6.060600;  -23.488000;   -0.727300;    7.280800;  -22.501000;    1.866000;    8.944900;  -19.788000;    4.592600;    8.254600
168.0;  -20.273000;    4.594500;    7.597200;  -22.973000;    1.798800;    8.141100;  -23.644000;   -0.720580;    7.095000;  -22.506000;   -3.070000;    5.153400
169.2;  -22.602000;   -3.130900;    4.310800;  -23.959000;   -0.884130;    5.471200;  -23.350000;    1.740200;    7.331500;  -20.676000;    4.566100;    6.882800
170.4;  -20.980000;    4.533200;    6.159600;  -23.607000;    1.671800;    6.495200;  -24.038000;   -0.870690;    5.410900;  -22.643000;   -3.120800;    3.578000
171.6;  -22.556000;   -3.136900;    2.727700;  -24.060000;   -1.014100;    3.754300;  -23.808000;    1.489200;    5.617500;  -21.219000;    4.468600;    5.418700
172.8;  -21.375000;    4.404000;    4.605000;  -23.889000;    1.512400;    4.705100;  -24.041000;   -0.993160;    3.641200;  -22.371000;   -3.127200;    1.826000
174.0;  -22.095000;   -3.120800;    0.901820;  -23.738000;   -1.118300;    1.794600;  -23.890000;    1.417200;    3.766100;  -21.429000;    4.339000;    3.790900
175.2;  -21.412000;    4.250900;    2.943500;  -23.793000;    1.269300;    2.809000;  -23.690000;   -1.082800;    1.921800;  -21.758000;   -3.073000;    0.045971
176.4;  -21.325000;   -3.043900;   -0.839080;  -23.106000;   -1.180200;   -0.090759;  -23.587000;    1.216300;    1.868900;  -21.322000;    4.132900;    2.132800
177.6;  -21.140000;    4.012300;    1.284300;  -23.298000;    1.126300;    0.916240;  -23.008000;   -1.191100;   -0.009460;  -20.789000;   -2.991200;   -1.740400
178.8;  -20.168000;   -2.946400;   -2.650200;  -22.077000;   -1.236600;   -2.017500;  -22.929000;    1.013900;   -0.059348;  -20.859000;    3.873000;    0.420310
180.0;  -20.516000;    3.730400;   -0.462880;  -22.446000;    0.897750;   -1.066300;  -21.671000;   -1.232100;   -2.444000;  -19.368000;   -2.816900;   -3.612800
181.2;  -18.576000;   -2.724300;   -4.481600;  -20.565000;   -1.240700;   -4.038200;  -21.882000;    0.821200;   -2.032300;  -20.076000;    3.570600;   -1.314700
182.4;  -19.571000;    3.411900;   -2.152800;  -21.237000;    0.726360;   -2.981700;  -20.310000;   -1.273600;   -4.145000;  -17.768000;   -2.619000;   -5.292400
183.6;  -16.881000;   -2.496500;   -6.112000;  -18.941000;   -1.263500;   -5.816000;  -20.523000;    0.615090;   -3.902200;  -19.005000;    3.235300;   -2.967300
184.8;  -18.331000;    3.054200;   -3.812800;  -19.705000;    0.423530;   -4.863400;  -18.720000;   -1.278400;   -5.742900;  -15.908000;   -2.380400;   -6.904000
186.0;  -14.842000;   -2.223900;   -7.675200;  -16.893000;   -1.229500;   -7.572500;  -18.801000;    0.395900;   -5.757300;  -17.591000;    2.829000;   -4.623500
187.2;  -16.780000;    2.615000;   -5.432500;  -17.821000;    0.305160;   -6.652700;  -16.696000;   -1.249300;   -7.449400;  -13.730000;   -2.080100;   -8.410600
188.4;  -12.562000;   -1.914400;   -9.100200;  -14.624000;   -1.156000;   -9.170000;  -16.798000;    0.194630;   -7.474900;  -15.922000;    2.385000;   -6.174100
189.6;  -15.009000;    2.156500;   -6.898800;  -15.704000;    0.075890;   -8.286800;  -14.360000;   -1.200800;   -9.118300;  -11.432000;   -1.762000;   -9.738400
190.8;  -10.141000;   -1.576000;  -10.364000;  -12.106000;   -1.090200;  -10.612000;  -14.532000;   -0.010366;   -9.070600;  -14.009000;    1.897400;   -7.622700
192.0;  -12.942000;    1.658700;   -8.309000;  -13.289000;   -0.093635;   -9.827100;  -11.462000;   -1.097000;  -10.807000;   -8.702200;   -1.306100;  -10.973000
193.2;   -7.361500;   -1.101100;  -11.512000;   -9.325000;   -0.951340;  -11.916000;  -11.992000;   -0.207520;  -10.522000;  -11.818000;    1.401800;   -8.945300
194.4;  -10.706000;    1.146800;   -9.523300;  -10.681000;   -0.279960;  -11.159000;   -8.815900;   -0.997650;  -12.001000;   -6.110800;   -0.944620;  -11.982000
195.6;   -4.735300;   -0.731780;  -12.422000;   -6.507100;   -0.821400;  -12.980000;   -9.252400;   -0.440150;  -11.844000;   -9.532100;    0.906710;  -10.079000
196.8;   -8.291400;    0.628530;  -10.609000;   -7.902500;   -0.449120;  -12.360000;   -6.093600;   -0.868070;  -13.008000;   -3.298100;   -0.483840;  -12.821000
198.0;   -1.831200;   -0.274740;  -13.183000;   -3.469300;   -0.648510;  -13.904000;   -6.441100;   -0.568980;  -12.891000;   -7.012500;    0.375360;  -11.090000
199.2;   -5.722300;    0.123690;  -11.545000;   -4.941600;   -0.594000;  -13.367000;   -3.005600;   -0.698550;  -13.961000;   -0.407640;   -0.067123;  -13.494000
200.4;    0.996530;    0.167000;  -13.743000;   -0.460420;   -0.473390;  -14.577000;   -3.501500;   -0.724690;  -13.801000;   -4.429900;   -0.115290;  -11.921000
201.6;   -3.128800;   -0.345680;  -12.283000;   -2.000200;   -0.712740;  -14.166000;    0.069582;   -0.523420;  -14.699000;    2.406200;    0.373120;  -13.967000
202.8;    3.883000;    0.608740;  -14.130000;    2.598300;   -0.268390;  -15.100000;   -0.483510;   -0.860980;  -14.535000;   -1.769700;   -0.608190;  -12.612000
204.0;   -0.416800;   -0.813560;  -12.882000;    1.064000;   -0.793390;  -14.810000;    3.445700;   -0.263910;  -15.242000;    5.408100;    0.922020;  -14.196000
205.2;    6.827300;    1.155800;  -14.265000;    5.790800;   -0.021568;  -15.368000;    2.607800;   -0.825880;  -15.044000;    0.960610;   -1.027900;  -13.105000
206.4;    2.264000;   -1.219100;  -13.277000;    4.080100;   -0.915120;  -15.261000;    6.222200;   -0.108940;  -15.536000;    8.158200;    1.350300;  -14.300000
207.6;    9.520200;    1.568800;  -14.272000;    8.653400;    0.182680;  -15.474000;    5.573800;   -0.865830;  -15.387000;    3.583500;   -1.412100;  -13.410000
208.8;    4.948800;   -1.575300;  -13.503000;    7.090100;   -0.884500;  -15.470000;    9.110400;    0.110240;  -15.665000;   10.822000;    1.715900;  -14.229000
210.0;   12.116000;    1.932500;  -14.120000;   11.523000;    0.402990;  -15.370000;    8.572400;   -0.883380;  -15.509000;    6.270200;   -1.738500;  -13.549000
211.2;    7.558500;   -1.902000;  -13.549000;   10.003000;   -0.886740;  -15.496000;   12.015000;    0.340630;  -15.584000;   13.346000;    2.086300;  -13.959000
212.4;   14.518000;    2.283100;  -13.741000;   14.195000;    0.631520;  -15.064000;   11.364000;   -0.870690;  -15.439000;    8.784200;   -2.036800;  -13.506000
213.6;   10.013000;   -2.181000;  -13.397000;   12.690000;   -0.846420;  -15.304000;   14.552000;    0.558330;  -15.317000;   15.635000;    2.452600;  -13.450000
214.8;   16.741000;    2.653900;  -13.133000;   16.651000;    0.869370;  -14.513000;   14.326000;   -0.922960;  -14.993000;   11.196000;   -2.290400;  -13.244000
216.0;   12.346000;   -2.406100;  -13.041000;   15.291000;   -0.797500;  -14.878000;   17.263000;    0.835390;  -14.616000;   17.765000;    2.889500;  -12.627000
217.2;   18.717000;    3.060100;  -12.198000;   18.941000;    1.084800;  -13.695000;   16.667000;   -0.722450;  -14.422000;   13.456000;   -2.475600;  -12.776000
218.4;   14.473000;   -2.575300;  -12.462000;   17.583000;   -0.709000;  -14.204000;   19.221000;    1.014300;  -13.962000;   19.536000;    3.115800;  -11.814000
219.6;   20.293000;    3.256200;  -11.294000;   20.801000;    1.302100;  -12.740000;   18.630000;   -0.656350;  -13.806000;   15.442000;   -2.634600;  -12.126000
220.8;   16.377000;   -2.694800;  -11.713000;   19.624000;   -0.610050;  -13.316000;   21.106000;    1.228600;  -12.988000;   21.044000;    3.344700;  -10.767000
222.0;   21.678000;    3.457800;  -10.142000;   22.396000;    1.496700;  -11.543000;   20.557000;   -0.540230;  -12.803000;   17.255000;   -2.724600;  -11.263000
223.2;   18.037000;   -2.808700;  -10.751000;   21.364000;   -0.494670;  -12.213000;   22.677000;    1.441800;  -11.768000;   22.223000;    3.555600;   -9.504100
224.4;   22.670000;    3.654600;   -8.834100;   23.650000;    1.676300;  -10.179000;   22.086000;   -0.416260;  -11.607000;   18.742000;   -2.768300;  -10.234000
225.6;   19.374000;   -2.847900;   -9.666300;   22.743000;   -0.351280;  -10.961000;   23.809000;    1.605000;  -10.493000;   23.019000;    3.703100;   -8.133400
226.8;   23.341000;    3.779300;   -7.364400;   24.512000;    1.859300;   -8.661200;   23.317000;   -0.246360;  -10.235000;   19.922000;   -2.751500;   -9.040300
228.0;   20.422000;   -2.753400;   -8.365900;   23.791000;   -0.183250;   -9.474500;   24.662000;    1.812200;   -8.788300;   23.428000;    3.839800;   -6.473800
229.2;   23.517000;    3.896900;   -5.654900;   24.982000;    2.009000;   -6.932100;   24.165000;   -0.101480;   -8.665200;   20.825000;   -2.665600;   -7.683300
230.4;   21.141000;   -2.648800;   -6.985300;   24.436000;   -0.021195;   -7.868800;   25.081000;    1.945900;   -7.166300;   23.559000;    3.886100;   -4.917700
231.6;   23.491000;    3.906300;   -4.085900;   25.098000;    2.125500;   -5.258400;   24.621000;    0.060581;   -7.024400;   21.363000;   -2.585400;   -6.250600
232.8;   21.524000;   -2.506200;   -5.452400;   24.727000;    0.178580;   -6.129400;   25.121000;    2.099000;   -5.261700;   23.325000;    3.899500;   -3.241800
234.0;   23.055000;    3.889100;   -2.343800;   24.798000;    2.222600;   -3.353800;   24.708000;    0.253260;   -5.203700;   21.580000;   -2.393800;   -4.656800
235.2;   21.555000;   -2.315400;   -3.819400;   24.603000;    0.332420;   -4.262100;   24.795000;    2.197600;   -3.523000;   22.726000;    3.852500;   -1.473600
236.4;   22.306000;    3.813700;   -0.608480;   24.164000;    2.307000;   -1.455800;   24.396000;    0.450040;   -3.168700;   21.466000;   -2.219400;   -3.023800
237.6;   21.274000;   -2.080100;   -2.187900;   24.154000;    0.558330;   -2.411500;   24.128000;    2.283500;   -1.725200;   21.780000;    3.763300;    0.263260
238.8;   21.166000;    3.692300;    1.172000;   23.154000;    2.357800;    0.434730;   23.771000;    0.639730;   -1.432600;   21.001000;   -1.952800;   -1.342400
240.0;   20.636000;   -1.799300;   -0.455860;   23.284000;    0.733830;   -0.456600;   22.851000;    2.369300;    0.673820;   20.333000;    3.575400;    2.143100
241.2;   19.534000;    3.480600;    3.008900;   21.671000;    2.372300;    2.420600;   22.705000;    0.789840;    0.494590;   20.218000;   -1.619700;    0.388160
242.4;   19.713000;   -1.440500;    1.213300;   22.095000;    0.943680;    1.434300;   21.505000;    2.395800;    2.371900;   18.754000;    3.392500;    3.809700
243.6;   17.848000;    3.268100;    4.611600;   20.029000;    2.363400;    4.197700;   21.372000;    1.045600;    2.371100;   19.117000;   -1.271000;    2.026300
244.8;   18.459000;   -1.069700;    2.880000;   20.538000;    1.169600;    3.311600;   19.779000;    2.398800;    4.168200;   16.934000;    3.155700;    5.374700
246.0;   15.873000;    3.007100;    6.172900;   17.987000;    2.333100;    5.953100;   19.637000;    1.246500;    4.223600;   17.719000;   -0.909900;    3.681900
247.2;   16.901000;   -0.644780;    4.484100;   18.655000;    1.334300;    5.097600;   17.778000;    2.363400;    5.847000;   14.728000;    2.846900;    6.911700
248.4;   13.597000;    2.669900;    7.593100;   15.729000;    2.278600;    7.543200;   17.666000;    1.455200;    5.940500;   16.055000;   -0.425220;    5.230600
249.6;   15.138000;   -0.201920;    5.957900;   16.566000;    1.560900;    6.742400;   15.507000;    2.326000;    7.460800;   12.413000;    2.531400;    8.247900
250.8;   11.143000;    2.340200;    8.884300;   13.187000;    2.183000;    9.019500;   15.381000;    1.652400;    7.536900;   14.129000;    0.028095;    6.663700
252.0;   13.042000;    0.280890;    7.355800;   14.147000;    1.746500;    8.306700;   12.612000;    2.221500;    9.164000;    9.700600;    2.087000;    9.491100
253.2;    8.366000;    1.870100;   10.034000;   10.314000;    2.056400;   10.348000;   12.829000;    1.811800;    8.995500;   11.933000;    0.518370;    8.005900
254.4;   10.833000;    0.783860;    8.597100;   11.542000;    1.926100;    9.656600;   10.202000;    2.129200;   10.253000;    7.126800;    1.721900;   10.518000
255.6;    5.763300;    1.511300;   10.970000;    7.594100;    1.915300;   11.411000;   10.188000;    1.998500;   10.293000;    9.662800;    1.011600;    9.158500
256.8;    8.420600;    1.249500;    9.709100;    8.767700;    2.075500;   10.874000;    7.323200;    1.991100;   11.406000;    4.359800;    1.318600;   11.377000
258.0;    2.913900;    1.086700;   11.761000;    4.587100;    1.755500;   12.360000;    7.311100;    2.132200;   11.436000;    7.158300;    1.479900;   10.190000
259.2;    5.856000;    1.740200;   10.652000;    5.831800;    2.223300;   11.916000;    4.276600;    1.836900;   12.380000;    1.484400;    0.877960;   12.079000
260.4;    0.089374;    0.662880;   12.365000;    1.588800;    1.563200;   13.072000;    4.384400;    2.246100;   12.382000;    4.614900;    1.947400;   11.041000
261.6;    3.302700;    2.145700;   11.422000;    2.888200;    2.310700;   12.774000;    1.298200;    1.643400;   13.152000;   -1.321000;    0.445190;   12.606000
262.8;   -2.774700;    0.216290;   12.795000;   -1.506900;    1.379800;   13.619000;    1.352800;    2.341300;   13.159000;    1.941100;    2.381700;   11.744000
264.0;    0.590420;    2.610600;   12.035000;   -0.197980;    2.320400;   13.429000;   -2.193700;    1.385400;   13.777000;   -4.325500;   -0.118650;   12.863000
265.2;   -5.750200;   -0.346800;   12.950000;   -4.615000;    1.128100;   13.959000;   -1.717200;    2.400000;   13.740000;   -0.775270;    2.806200;   12.278000
266.4;   -2.079700;    2.949600;   12.466000;   -3.199900;    2.433200;   13.927000;   -4.981900;    1.205100;   14.129000;   -7.035600;   -0.479730;   13.035000
267.6;   -8.357700;   -0.693690;   13.037000;   -7.492700;    0.930990;   14.078000;   -4.677000;    2.434300;   14.105000;   -3.395600;    3.148600;   12.605000
268.8;   -4.732700;    3.350600;   12.724000;   -6.187800;    2.446600;   14.184000;   -7.906500;    0.987000;   14.276000;   -9.728500;   -0.909150;   12.959000
270.0;  -11.026000;   -1.133600;   12.838000;  -10.410000;    0.677440;   13.975000;   -7.672300;    2.432100;   14.256000;   -6.066900;    3.481300;   12.769000
271.2;   -7.355600;    3.660900;   12.766000;   -9.091500;    2.444400;   14.230000;  -10.770000;    0.749880;   14.217000;  -12.280000;   -1.303500;   12.690000
272.4;  -13.429000;   -1.504400;   12.478000;  -13.064000;    0.445930;   13.675000;  -10.459000;    2.418600;   14.181000;   -8.563000;    3.796100;   12.705000
273.6;   -9.763700;    3.922300;   12.621000;  -11.782000;    2.425000;   14.023000;  -13.290000;    0.538910;   13.964000;  -14.540000;   -1.654100;   12.222000
274.8;  -15.632000;   -1.848300;   11.895000;  -15.498000;    0.223760;   13.125000;  -13.120000;    2.359600;   13.848000;  -10.961000;    4.027300;   12.453000
276.0;  -12.092000;    4.139300;   12.239000;  -14.350000;    2.371600;   13.589000;  -15.996000;    0.265950;   13.255000;  -16.660000;   -2.065600;   11.429000
277.2;  -17.588000;   -2.234400;   10.984000;  -17.759000;   -0.016714;   12.286000;  -16.063000;    2.235300;   12.949000;  -13.201000;    4.212100;   11.977000
278.4;  -14.219000;    4.328600;   11.687000;  -16.631000;    2.297600;   12.939000;  -18.051000;    0.059461;   12.539000;  -18.427000;   -2.346400;   10.533000
279.6;  -19.208000;   -2.493500;   10.013000;  -19.602000;   -0.201170;   11.326000;  -17.752000;    2.218100;   12.452000;  -15.175000;    4.390600;   11.334000
280.8;  -16.114000;    4.455500;   10.927000;  -18.659000;    2.192700;   12.036000;  -19.865000;   -0.144790;   11.563000;  -19.912000;   -2.555500;    9.526600
282.0;  -20.537000;   -2.676500;    8.904200;  -21.149000;   -0.359500;   10.141000;  -19.572000;    2.121800;   11.521000;  -16.970000;    4.506700;   10.464000
283.2;  -17.741000;    4.544000;    9.953400;  -20.377000;    2.079600;   10.917000;  -21.370000;   -0.333360;   10.439000;  -21.078000;   -2.780300;    8.207600
284.4;  -21.525000;   -2.870300;    7.537700;  -22.405000;   -0.581670;    8.790400;  -21.107000;    2.003800;   10.320000;  -18.436000;    4.567200;    9.439000
285.6;  -19.063000;    4.580300;    8.854300;  -21.743000;    1.953700;    9.634800;  -22.552000;   -0.516700;    9.021800;  -21.868000;   -2.912100;    6.833700
286.8;  -22.161000;   -3.009500;    6.062800;  -23.265000;   -0.740740;    7.240900;  -22.304000;    1.817100;    8.896500;  -19.637000;    4.572800;    8.241300
288.0;  -20.105000;    4.570600;    7.552400;  -22.780000;    1.806200;    8.140800;  -23.401000;   -0.710120;    7.272000;  -22.317000;   -3.046900;    5.227300
289.2;  -22.404000;   -3.092400;    4.397300;  -23.742000;   -0.885250;    5.477500;  -23.162000;    1.742400;    7.338900;  -20.506000;    4.533600;    6.872100
290.4;  -20.805000;    4.504500;    6.152200;  -23.411000;    1.676300;    6.501800;  -23.785000;   -0.839700;    5.746900;  -22.465000;   -3.081200;    3.646800
291.6;  -22.383000;   -3.107000;    2.795700;  -23.845000;   -1.009200;    3.734700;  -23.615000;    1.565400;    5.647800;  -21.066000;    4.438400;    5.392100
292.8;  -21.205000;    4.356200;    4.588700;  -23.693000;    1.503000;    4.728400;  -23.855000;   -0.969640;    3.912500;  -22.219000;   -3.088000;    1.922900
294.0;  -21.970000;   -3.084600;    1.018600;  -23.575000;   -1.110400;    1.853000;  -23.720000;    1.388000;    3.795300;  -21.265000;    4.312500;    3.780900
295.2;  -21.254000;    4.231500;    2.947200;  -23.613000;    1.305900;    2.833000;  -23.518000;   -1.081300;    2.040000;  -21.624000;   -3.069300;    0.140940
296.4;  -21.198000;   -3.046500;   -0.735600;  -22.931000;   -1.184300;   -0.034958;  -23.358000;    1.195400;    1.541900;  -21.162000;    4.116100;    2.149000
297.6;  -20.972000;    3.995100;    1.309800;  -23.141000;    1.137900;    0.963170;  -22.852000;   -1.153000;    0.188610;  -20.696000;   -2.978600;   -1.628800
298.8;  -20.091000;   -2.924000;   -2.526000;  -21.929000;   -1.234000;   -1.956900;  -22.780000;    1.023200;   -0.006504;  -20.693000;    3.871500;    0.439530
300.0;  -20.333000;    3.742700;   -0.430370;  -22.293000;    0.939570;   -0.997240;  -21.708000;   -1.220900;   -1.949900;  -19.291000;   -2.810500;   -3.489000
301.2;  -18.534000;   -2.716400;   -4.341900;  -20.454000;   -1.262800;   -3.954700;  -21.735000;    0.835390;   -1.978000;  -19.924000;    3.574300;   -1.282900
302.4;  -19.434000;    3.400300;   -2.103300;  -21.105000;    0.674080;   -2.917400;  -20.361000;   -1.264600;   -3.757700;  -17.784000;   -2.643200;   -5.135700
303.6;  -16.896000;   -2.538300;   -5.955400;  -18.829000;   -1.247500;   -5.728800;  -20.185000;    0.613220;   -4.214800;  -18.850000;    3.133300;   -2.935500
304.8;  -18.187000;    3.028000;   -3.755500;  -19.585000;    0.539280;   -4.761700;  -18.645000;   -1.277000;   -5.555900;  -15.913000;   -2.412500;   -6.758000
306.0;  -14.861000;   -2.266500;   -7.546600;  -16.811000;   -1.216500;   -7.464200;  -18.670000;    0.399260;   -5.674900;  -17.436000;    2.808500;   -4.571100
307.2;  -16.640000;    2.603100;   -5.354900;  -17.712000;    0.313000;   -6.549200;  -16.665000;   -1.266900;   -7.260200;  -13.803000;   -2.130900;   -8.266800
308.4;  -12.686000;   -1.980400;   -8.953800;  -14.576000;   -1.167200;   -9.044000;  -16.718000;    0.205460;   -7.357400;  -15.804000;    2.358100;   -6.098700
309.6;  -14.895000;    2.141600;   -6.816000;  -15.633000;    0.114350;   -8.182200;  -14.392000;   -1.204900;   -8.877700;  -11.489000;   -1.812800;   -9.610100
310.8;  -10.221000;   -1.621200;  -10.241000;  -12.034000;   -1.073100;  -10.506000;  -14.452000;   -0.001778;   -8.959000;  -13.883000;    1.895900;   -7.514800
312.0;  -12.842000;    1.674800;   -8.193700;  -13.220000;   -0.078325;   -9.701800;  -11.576000;   -1.102600;  -10.581000;   -8.777700;   -1.337100;  -10.859000
313.2;   -7.441700;   -1.143300;  -11.392000;   -9.258300;   -0.937530;  -11.812000;  -11.552000;   -0.158230;  -10.673000;  -11.732000;    1.394800;   -8.836700
314.4;  -10.632000;    1.164400;   -9.415800;  -10.646000;   -0.255320;  -11.026000;   -9.050400;   -1.016300;  -11.736000;   -6.168000;   -0.961800;  -11.858000
315.6;   -4.799000;   -0.749710;  -12.288000;   -6.498300;   -0.806840;  -12.861000;   -8.984800;   -0.338590;  -11.835000;   -9.452500;    0.912690;   -9.969700
316.8;   -8.247700;    0.643460;  -10.491000;   -7.902500;   -0.486460;  -12.233000;   -6.196600;   -0.886000;  -12.835000;   -3.455000;   -0.593620;  -12.718000
318.0;   -1.999800;   -0.358000;  -13.098000;   -3.499700;   -0.637310;  -13.773000;   -6.430100;   -0.508490;  -12.765000;   -6.978100;    0.392910;  -10.991000
319.2;   -5.700000;    0.127050;  -11.442000;   -4.965400;   -0.586900;  -13.243000;   -3.137200;   -0.700790;  -13.809000;   -0.578080;   -0.149270;  -13.415000
320.4;    0.829030;    0.079625;  -13.675000;   -0.501840;   -0.459940;  -14.464000;   -3.532300;   -0.619760;  -13.666000;   -4.432100;   -0.091394;  -11.806000
321.6;   -3.131700;   -0.340450;  -12.176000;   -2.059600;   -0.754560;  -14.061000;   -0.191750;   -0.539110;  -14.533000;    2.235400;    0.296950;  -13.901000
322.8;    3.690500;    0.533680;  -14.094000;    2.571100;   -0.263160;  -14.975000;   -0.192490;   -0.723190;  -14.455000;   -1.770400;   -0.546570;  -12.486000
324.0;   -0.425600;   -0.789660;  -12.759000;    1.018200;   -0.786670;  -14.703000;    3.018300;   -0.316930;  -15.110000;    5.213800;    0.812240;  -14.174000
325.2;    6.622400;    1.040400;  -14.252000;    5.643800;   -0.040238;  -15.298000;    2.687000;   -0.796380;  -14.956000;    0.926890;   -0.996150;  -13.000000
326.4;    2.221500;   -1.206000;  -13.166000;    3.992900;   -0.841560;  -15.118000;    5.866300;   -0.128730;  -15.452000;    7.933100;    1.210700;  -14.309000
327.6;    9.276500;    1.425700;  -14.278000;    8.513000;    0.183430;  -15.398000;    5.492000;   -0.852390;  -15.278000;    3.527400;   -1.381100;  -13.322000
328.8;    4.872200;   -1.566000;  -13.413000;    6.998800;   -0.918110;  -15.379000;    8.909600;    0.103520;  -15.608000;   10.628000;    1.637100;  -14.228000
330.0;   11.944000;    1.857400;  -14.109000;   11.435000;    0.399260;  -15.298000;    8.737300;   -0.850900;  -15.376000;    6.195400;   -1.726900;  -13.463000
331.2;    7.480500;   -1.891200;  -13.453000;    9.901100;   -0.882640;  -15.414000;   11.697000;    0.308150;  -15.569000;   13.183000;    2.028000;  -13.960000
332.4;   14.352000;    2.227100;  -13.756000;   14.090000;    0.630400;  -14.978000;   11.470000;   -0.833350;  -15.274000;    8.695900;   -2.034600;  -13.410000
333.6;    9.892300;   -2.177200;  -13.313000;   12.573000;   -0.859110;  -15.218000;   14.349000;    0.527340;  -15.296000;   15.484000;    2.391700;  -13.482000
334.8;   16.590000;    2.579900;  -13.157000;   16.545000;    0.848840;  -14.452000;   14.175000;   -0.790030;  -14.914000;   11.082000;   -2.313500;  -13.161000
336.0;   12.227000;   -2.397200;  -12.947000;   15.175000;   -0.792270;  -14.800000;   16.887000;    0.771540;  -14.745000;   17.612000;    2.800200;  -12.692000
337.2;   18.557000;    2.947400;  -12.275000;   18.808000;    1.073600;  -13.643000;   16.371000;   -0.744480;  -14.491000;   13.327000;   -2.477800;  -12.700000
338.4;   14.344000;   -2.574900;  -12.389000;   17.452000;   -0.729540;  -14.143000;   18.974000;    0.964220;  -14.058000;   19.402000;    3.058600;  -11.861000
339.6;   20.208000;    3.196100;  -11.357000;   20.684000;    1.273000;  -12.686000;   18.556000;   -0.654860;  -13.696000;   15.296000;   -2.617100;  -12.050000
340.8;   16.237000;   -2.695500;  -11.643000;   19.501000;   -0.627980;  -13.273000;   20.935000;    1.209900;  -13.053000;   20.919000;    3.323400;  -10.758000
342.0;   21.556000;    3.445100;  -10.152000;   22.286000;    1.481400;  -11.527000;   20.418000;   -0.548070;  -12.753000;   17.095000;   -2.719800;  -11.197000
343.2;   17.881000;   -2.762000;  -10.701000;   21.230000;   -0.517450;  -12.177000;   22.461000;    1.399600;  -11.923000;   22.139000;    3.516800;   -9.570200
344.4;   22.574000;    3.609800;   -8.901000;   23.537000;    1.666200;  -10.169000;   22.090000;   -0.396090;  -11.334000;   18.564000;   -2.789600;  -10.198000
345.6;   19.194000;   -2.778800;   -9.610500;   22.592000;   -0.376670;  -10.914000;   23.642000;    1.582200;  -10.596000;   22.966000;    3.664300;   -8.215100
346.8;   23.268000;    3.742700;   -7.456800;   24.408000;    1.827900;   -8.683000;   23.167000;   -0.280340;  -10.211000;   19.763000;   -2.748200;   -9.002200
348.0;   20.242000;   -2.750400;   -8.323800;   23.631000;   -0.304980;   -9.470800;   24.515000;    1.750600;   -8.969000;   23.411000;    3.800200;   -6.616100
349.2;   23.523000;    3.848800;   -5.804200;   24.883000;    1.971700;   -6.962000;   24.033000;   -0.136950;   -8.661500;   20.653000;   -2.682800;   -7.647900
350.4;   20.959000;   -2.656300;   -6.938300;   24.278000;   -0.068244;   -7.850000;   24.982000;    1.913800;   -7.382900;   23.577000;    3.865900;   -5.048900
351.6;   23.499000;    3.879000;   -4.194900;   24.995000;    2.090000;   -5.222600;   24.492000;    0.031455;   -7.019300;   21.203000;   -2.586100;   -6.218100
352.8;   21.351000;   -2.503600;   -5.423600;   24.583000;    0.125180;   -6.123100;   25.048000;    2.048600;   -5.644200;   23.346000;    3.872300;   -3.350800
354.0;   23.082000;    3.874200;   -2.451000;   24.742000;    2.195300;   -3.361200;   24.594000;    0.207700;   -5.210400;   21.419000;   -2.414000;   -4.640500
355.2;   21.409000;   -2.326200;   -3.803500;   24.471000;    0.122570;   -4.312400;   24.754000;    2.162500;   -3.717800;   22.739000;    3.847300;   -1.573000
356.4;   22.329000;    3.817800;   -0.696430;   24.086000;    2.252100;   -1.503500;   24.307000;    0.409710;   -3.346000;   21.285000;   -2.206000;   -3.031600
357.6;   21.108000;   -2.088700;   -2.176400;   24.038000;    0.502690;   -2.416300;   24.100000;    2.251300;   -1.837200;   21.814000;    3.777400;    0.174200
358.8;   21.217000;    3.719600;    1.096200;   23.082000;    2.339500;    0.442490;   23.668000;    0.602760;   -1.442200;   20.871000;   -1.987200;   -1.355300
360.0;   20.469000;   -1.798200;   -0.463250;   23.189000;    0.719270;   -0.459930;   23.002000;    2.331300;    0.181590;   20.389000;    3.602300;    2.024900
