# *CALIBRATION************
# Voff:  -0.000557, -0.000502, 0.000355
# Oe*Vref/V:  18766.300781, 19118.269531, 18920.400390
# mV/Vref/Oe:  0.053287, 0.052306, 0.052853
# Hrel:  0.000000, 0.000000, 0.000000
# ADC Vref:  4.000000
# ADC Bits:  16
# ADC samples:  10
# ADC Speed:  4
# Linearization
# A0:  0.000000, 0.000000, 0.000000
# A1:  1.000000, 1.000000, 1.000000
# A2:  0.000000, 0.000000, 0.000000
# A3:  0.222500, 0.222500, 0.222500
# A4:  0.000000, 0.000000, 0.000000
# A5:  3.403000, 3.403000, 3.403000
# Orthogonalization
# 1.000000, 0.000000, 0.000000
# 0.000000, 1.000000, 0.000000
# 0.000000, 0.000000, 1.000000
# EEPROM Cal Valid, Valid, Valid
# EEPROM Lin Valid, Valid, Valid
# EEPROM Ortho Not Valid
# Sensor ID:   USB25103-1715507101             
# Software Version:  MDTUSBMAG3D.V9.20220510
# ************************
# 
# SENSOR_NB_SAMPLE: 10 
# SENSOR_GAIN: 1 
# SENSOR_READ_DELAY: 0.7 
# SENSOR_Oe_mT: 0.1 
# working dist: 6 mm
# Rotation step angle: 2.4°
# sensor pos #1: 0 mm
# sensor pos #2: 15 mm
# sensor pos #3: 30 mm
# sensor pos #4: 45 mm
# sensor pos #5: 60 mm
# sensor pos #6: 75 mm
# sensor pos #7: 90 mm
#
# ZPos#; a[°]; X1_magn[mT]; Y1_magn[mT]; Z1_magn[mT]
 1;  0.0;   93.039000;  -28.671000;   12.443000
 1;  2.4;   92.097000;  -27.682000;   19.721000
 1;  4.8;   87.998000;  -26.146000;   27.212000
 1;  7.2;   78.787000;  -23.936000;   34.404000
 1;  9.6;   67.282000;  -21.316000;   39.997000
 1; 12.0;   58.114000;  -18.368000;   44.302000
 1; 14.4;   51.854000;  -15.190000;   48.264000
 1; 16.8;   43.735000;  -11.851000;   52.257000
 1; 19.2;   29.803000;   -8.151000;   55.724000
 1; 21.6;   14.689000;   -4.371400;   57.510000
 1; 24.0;    3.524100;   -0.506620;   57.928000
 1; 26.4;   -4.991500;    3.345800;   57.998000
 1; 28.8;  -16.685000;    7.137000;   57.850000
 1; 31.2;  -32.678000;   11.029000;   56.444000
 1; 33.6;  -45.665000;   14.613000;   53.401000
 1; 36.0;  -53.359000;   17.969000;   49.481000
 1; 38.4;  -60.064000;   21.092000;   45.677000
 1; 40.8;  -70.459000;   23.917000;   41.709000
 1; 43.2;  -83.497000;   26.530000;   36.134000
 1; 45.6;  -92.387000;   28.554000;   29.059000
 1; 48.0;  -95.900000;   29.992000;   21.138000
 1; 50.4;  -96.361000;   30.893000;   13.441000
 1; 52.8;  -96.069000;   31.345000;    6.508100
 1; 55.2;  -95.986000;   31.466000;   -0.225640
 1; 57.6;  -96.307000;   31.252000;   -6.702200
 1; 60.0;  -96.661000;   30.695000;  -13.741000
 1; 62.4;  -95.769000;   29.643000;  -21.407000
 1; 64.8;  -91.224000;   28.075000;  -29.232000
 1; 67.2;  -80.634000;   25.797000;  -36.678000
 1; 69.6;  -67.889000;   23.117000;  -42.237000
 1; 72.0;  -58.472000;   20.098000;  -46.432000
 1; 74.4;  -52.471000;   16.874000;  -50.271000
 1; 76.8;  -43.919000;   13.409000;  -54.283000
 1; 79.2;  -28.852000;    9.557400;  -57.668000
 1; 81.6;  -13.267000;    5.625100;  -59.208000
 1; 84.0;   -2.583700;    1.621800;  -59.444000
 1; 86.4;    5.800600;   -2.355300;  -59.492000
 1; 88.8;   18.403000;   -6.273100;  -59.294000
 1; 91.2;   35.328000;  -10.254000;  -57.674000
 1; 93.6;   48.074000;  -13.899000;  -54.306000
 1; 96.0;   55.174000;  -17.300000;  -50.214000
 1; 98.4;   62.122000;  -20.431000;  -46.325000
 1;100.8;   73.412000;  -23.285000;  -42.138000
 1;103.2;   86.619000;  -25.889000;  -36.137000
 1;105.6;   94.628000;  -27.847000;  -28.727000
 1;108.0;   97.231000;  -29.210000;  -20.592000
 1;110.4;   97.208000;  -30.022000;  -12.895000
 1;112.8;   96.715000;  -30.400000;   -5.991200
 1;115.2;   96.540000;  -30.443000;    0.723340
 1;117.6;   96.781000;  -30.168000;    7.276800
 1;120.0;   96.954000;  -29.527000;   14.421000
 1;122.4;   95.554000;  -28.382000;   22.192000
 1;124.8;   89.989000;  -26.713000;   30.016000
 1;127.2;   78.382000;  -24.323000;   37.240000
 1;129.6;   65.674000;  -21.561000;   42.498000
 1;132.0;   56.822000;  -18.482000;   46.497000
 1;134.4;   50.660000;  -15.231000;   50.291000
 1;136.8;   41.164000;  -11.759000;   54.137000
 1;139.2;   25.475000;   -7.864900;   57.186000
 1;141.6;   10.651000;   -3.976700;   58.367000
 1;144.0;    0.675090;   -0.037998;   58.398000
 1;146.4;   -8.097500;    3.869700;   58.317000
 1;148.8;  -21.142000;    7.703800;   57.847000
 1;151.2;  -37.377000;   11.592000;   55.846000
 1;153.6;  -48.867000;   15.109000;   52.297000
 1;156.0;  -55.532000;   18.390000;   48.174000
 1;158.4;  -62.776000;   21.427000;   44.203000
 1;160.8;  -73.845000;   24.178000;   39.812000
 1;163.2;  -85.823000;   26.608000;   33.699000
 1;165.6;  -92.713000;   28.440000;   26.346000
 1;168.0;  -94.835000;   29.728000;   18.481000
 1;170.4;  -94.740000;   30.465000;   11.014000
 1;172.8;  -94.215000;   30.805000;    4.324100
 1;175.2;  -93.964000;   30.821000;   -2.241500
 1;177.6;  -94.002000;   30.516000;   -8.657800
 1;180.0;  -93.810000;   29.855000;  -15.634000
 1;182.4;  -91.863000;   28.709000;  -23.141000
 1;184.8;  -86.008000;   27.017000;  -30.578000
 1;187.2;  -74.969000;   24.708000;  -37.368000
 1;189.6;  -63.430000;   22.069000;  -42.340000
 1;192.0;  -55.077000;   19.072000;  -46.281000
 1;194.4;  -48.545000;   15.892000;  -50.009000
 1;196.8;  -38.961000;   12.527000;  -53.657000
 1;199.2;  -24.296000;    8.779200;  -56.475000
 1;201.6;  -10.620000;    5.014900;  -57.635000
 1;204.0;   -0.815220;    1.195000;  -57.752000
 1;206.4;    8.228600;   -2.620800;  -57.652000
 1;208.8;   20.809000;   -6.320500;  -57.091000
 1;211.2;   35.764000;  -10.074000;  -55.107000
 1;213.6;   46.658000;  -13.519000;  -51.724000
 1;216.0;   53.515000;  -16.712000;  -47.791000
 1;218.4;   60.761000;  -19.653000;  -43.898000
 1;220.8;   71.084000;  -22.312000;  -39.575000
 1;223.2;   82.126000;  -24.672000;  -33.676000
 1;225.6;   88.852000;  -26.472000;  -26.673000
 1;228.0;   91.322000;  -27.711000;  -19.146000
 1;230.4;   91.565000;  -28.468000;  -11.921000
 1;232.8;   91.248000;  -28.778000;   -5.350000
 1;235.2;   91.107000;  -28.799000;    1.099200
 1;237.6;   91.129000;  -28.488000;    7.409800
 1;240.0;   90.865000;  -27.812000;   14.232000
 1;242.4;   88.982000;  -26.695000;   21.505000
 1;244.8;   83.631000;  -25.081000;   28.726000
 1;247.2;   73.624000;  -22.850000;   35.394000
 1;249.6;   62.710000;  -20.287000;   40.438000
 1;252.0;   54.291000;  -17.414000;   44.438000
 1;254.4;   47.654000;  -14.308000;   48.140000
 1;256.8;   38.684000;  -11.067000;   51.711000
 1;259.2;   25.065000;   -7.429900;   54.577000
 1;261.6;   11.702000;   -3.782500;   55.926000
 1;264.0;    1.646800;   -0.075338;   56.191000
 1;266.4;   -7.233900;    3.632200;   56.118000
 1;268.8;  -18.987000;    7.267700;   55.667000
 1;271.2;  -33.332000;   10.928000;   53.938000
 1;273.6;  -44.622000;   14.280000;   50.847000
 1;276.0;  -51.959000;   17.401000;   47.090000
 1;278.4;  -59.097000;   20.310000;   43.273000
 1;280.8;  -68.859000;   22.920000;   39.104000
 1;283.2;  -79.763000;   25.282000;   33.518000
 1;285.6;  -86.969000;   27.082000;   26.804000
 1;288.0;  -90.050000;   28.381000;   19.428000
 1;290.4;  -90.662000;   29.186000;   12.240000
 1;292.8;  -90.567000;   29.579000;    5.684800
 1;295.2;  -90.506000;   29.654000;   -0.736340
 1;297.6;  -90.663000;   29.405000;   -6.963800
 1;300.0;  -90.632000;   28.819000;  -13.683000
 1;302.4;  -89.272000;   27.800000;  -20.879000
 1;304.8;  -84.727000;   26.282000;  -28.107000
 1;307.2;  -75.499000;   24.175000;  -34.949000
 1;309.6;  -64.653000;   21.702000;  -40.259000
 1;312.0;  -55.928000;   18.895000;  -44.447000
 1;314.4;  -49.446000;   15.874000;  -48.267000
 1;316.8;  -41.074000;   12.639000;  -51.983000
 1;319.2;  -27.793000;    9.066400;  -55.163000
 1;321.6;  -13.968000;    5.419700;  -56.787000
 1;324.0;   -3.389400;    1.683400;  -57.238000
 1;326.4;    5.379500;   -2.064500;  -57.325000
 1;328.8;   16.899000;   -5.743600;  -57.095000
 1;331.2;   31.806000;   -9.503500;  -55.629000
 1;333.6;   43.923000;  -12.938000;  -52.707000
 1;336.0;   51.698000;  -16.195000;  -48.964000
 1;338.4;   58.684000;  -19.219000;  -45.212000
 1;340.8;   68.628000;  -21.950000;  -41.185000
 1;343.2;   80.524000;  -24.460000;  -35.686000
 1;345.6;   88.688000;  -26.419000;  -28.927000
 1;348.0;   92.175000;  -27.868000;  -21.317000
 1;350.4;   92.807000;  -28.762000;  -13.904000
 1;352.8;   92.595000;  -29.261000;   -7.176300
 1;355.2;   92.484000;  -29.396000;   -0.631760
 1;357.6;   92.692000;  -29.203000;    5.677400
 2;  0.0;   96.025000;   -8.683100;   15.629000
 2;  2.4;   95.650000;   -8.035200;   24.227000
 2;  4.8;   91.675000;   -7.266700;   32.995000
 2;  7.2;   81.552000;   -6.332900;   41.374000
 2;  9.6;   68.719000;   -5.299600;   47.711000
 2; 12.0;   58.876000;   -4.162600;   52.508000
 2; 14.4;   52.797000;   -2.940800;   56.848000
 2; 16.8;   44.754000;   -1.704500;   61.238000
 2; 19.2;   30.174000;   -0.424100;   64.961000
 2; 21.6;   14.535000;    0.822700;   66.729000
 2; 24.0;    3.784400;    2.093000;   67.042000
 2; 26.4;   -4.399900;    3.356600;   67.042000
 2; 28.8;  -16.672000;    4.544800;   66.749000
 2; 31.2;  -33.484000;    5.669900;   64.870000
 2; 33.6;  -46.452000;    6.707200;   61.133000
 2; 36.0;  -53.579000;    7.716900;   56.588000
 2; 38.4;  -60.573000;    8.618700;   52.191000
 2; 40.8;  -72.241000;    9.343800;   47.336000
 2; 43.2;  -86.136000;    9.887900;   40.410000
 2; 45.6;  -94.529000;   10.256000;   31.917000
 2; 48.0;  -97.104000;   10.506000;   22.650000
 2; 50.4;  -96.867000;   10.624000;   13.876000
 2; 52.8;  -96.242000;   10.591000;    6.061700
 2; 55.2;  -96.188000;   10.448000;   -1.517900
 2; 57.6;  -96.843000;   10.137000;   -8.879200
 2; 60.0;  -97.788000;    9.659400;  -16.927000
 2; 62.4;  -97.587000;    9.047700;  -25.779000
 2; 64.8;  -93.365000;    8.310600;  -34.911000
 2; 67.2;  -82.401000;    7.426700;  -43.434000
 2; 69.6;  -68.821000;    6.477900;  -49.766000
 2; 72.0;  -58.958000;    5.377900;  -54.522000
 2; 74.4;  -53.375000;    4.188600;  -58.863000
 2; 76.8;  -44.901000;    2.958200;  -63.387000
 2; 79.2;  -28.980000;    1.688200;  -67.097000
 2; 81.6;  -13.021000;    0.433240;  -68.617000
 2; 84.0;   -2.816800;   -0.859860;  -68.735000
 2; 86.4;    5.206500;   -2.146200;  -68.711000
 2; 88.8;   18.414000;   -3.311300;  -68.326000
 2; 91.2;   36.061000;   -4.445300;  -66.152000
 2; 93.6;   48.441000;   -5.480400;  -62.137000
 2; 96.0;   54.962000;   -6.469500;  -57.364000
 2; 98.4;   62.297000;   -7.379100;  -52.814000
 2;100.8;   74.749000;   -8.083000;  -47.760000
 2;103.2;   88.653000;   -8.621100;  -40.478000
 2;105.6;   96.301000;   -9.020300;  -31.605000
 2;108.0;   98.135000;   -9.273100;  -22.094000
 2;110.4;   97.557000;   -9.413800;  -13.416000
 2;112.8;   96.806000;   -9.400800;   -5.599100
 2;115.2;   96.735000;   -9.227900;    2.050000
 2;117.6;   97.394000;   -8.940000;    9.394300
 2;120.0;   98.193000;   -8.462400;   17.687000
 2;122.4;   97.489000;   -7.851100;   26.685000
 2;124.8;   92.305000;   -7.134600;   35.762000
 2;127.2;   80.236000;   -6.256300;   44.063000
 2;129.6;   66.744000;   -5.300400;   50.025000
 2;132.0;   57.655000;   -4.208500;   54.574000
 2;134.4;   51.982000;   -3.019600;   58.875000
 2;136.8;   42.563000;   -1.818000;   63.209000
 2;139.2;   26.226000;   -0.547320;   66.537000
 2;141.6;   10.857000;    0.680430;   67.720000
 2;144.0;    1.241700;    1.969800;   67.653000
 2;146.4;   -7.248200;    3.248000;   67.464000
 2;148.8;  -21.050000;    4.430200;   66.759000
 2;151.2;  -37.914000;    5.570900;   64.234000
 2;153.6;  -49.258000;    6.619100;   60.040000
 2;156.0;  -55.596000;    7.637700;   55.225000
 2;158.4;  -63.313000;    8.550000;   50.664000
 2;160.8;  -75.640000;    9.287800;   45.356000
 2;163.2;  -88.293000;    9.861000;   37.903000
 2;165.6;  -94.867000;   10.275000;   29.162000
 2;168.0;  -96.343000;   10.568000;   20.009000
 2;170.4;  -95.753000;   10.719000;   11.474000
 2;172.8;  -95.085000;   10.730000;    3.906900
 2;175.2;  -94.997000;   10.575000;   -3.543700
 2;177.6;  -95.481000;   10.261000;  -10.901000
 2;180.0;  -95.945000;    9.805700;  -18.919000
 2;182.4;  -94.642000;    9.195200;  -27.684000
 2;184.8;  -88.952000;    8.454000;  -36.339000
 2;187.2;  -77.265000;    7.566800;  -44.207000
 2;189.6;  -64.841000;    6.605600;  -49.921000
 2;192.0;  -56.291000;    5.490600;  -54.356000
 2;194.4;  -50.122000;    4.281200;  -58.590000
 2;196.8;  -40.442000;    3.069500;  -62.687000
 2;199.2;  -25.095000;    1.790200;  -65.777000
 2;201.6;  -10.818000;    0.525840;  -66.933000
 2;204.0;   -1.234200;   -0.786670;  -66.964000
 2;206.4;    7.670300;   -2.077500;  -66.784000
 2;208.8;   20.932000;   -3.275800;  -65.981000
 2;211.2;   36.820000;   -4.471800;  -63.482000
 2;213.6;   47.765000;   -5.533400;  -59.468000
 2;216.0;   54.497000;   -6.588600;  -54.898000
 2;218.4;   62.321000;   -7.502000;  -50.308000
 2;220.8;   73.834000;   -8.263700;  -45.070000
 2;223.2;   85.693000;   -8.850400;  -37.866000
 2;225.6;   92.208000;   -9.277900;  -29.474000
 2;228.0;   94.062000;   -9.551300;  -20.658000
 2;230.4;   93.822000;   -9.683800;  -12.342000
 2;232.8;   93.318000;   -9.656600;   -4.904000
 2;235.2;   93.240000;   -9.493000;    2.421700
 2;237.6;   93.658000;   -9.180500;    9.623400
 2;240.0;   93.929000;   -8.694300;   17.529000
 2;242.4;   92.591000;   -8.062100;   25.998000
 2;244.8;   87.346000;   -7.288400;   34.409000
 2;247.2;   76.706000;   -6.382100;   42.125000
 2;249.6;   64.870000;   -5.405700;   47.893000
 2;252.0;   56.086000;   -4.276100;   52.408000
 2;254.4;   49.612000;   -3.038700;   56.621000
 2;256.8;   40.446000;   -1.789300;   60.647000
 2;259.2;   25.994000;   -0.513340;   63.791000
 2;261.6;   11.986000;    0.762950;   65.124000
 2;264.0;    1.937800;    2.054200;   65.297000
 2;266.4;   -6.938100;    3.321500;   65.126000
 2;268.8;  -19.324000;    4.530200;   64.448000
 2;271.2;  -34.538000;    5.679600;   62.237000
 2;273.6;  -45.897000;    6.751600;   58.501000
 2;276.0;  -52.983000;    7.774400;   54.118000
 2;278.4;  -60.559000;    8.690700;   49.678000
 2;280.8;  -71.477000;    9.446100;   44.650000
 2;283.2;  -83.298000;   10.052000;   37.836000
 2;285.6;  -90.479000;   10.482000;   29.732000
 2;288.0;  -92.962000;   10.752000;   21.059000
 2;290.4;  -93.031000;   10.899000;   12.804000
 2;292.8;  -92.671000;   10.880000;    5.331900
 2;295.2;  -92.647000;   10.732000;   -1.968400
 2;297.6;  -93.093000;   10.407000;   -9.124200
 2;300.0;  -93.553000;    9.918100;  -16.881000
 2;302.4;  -92.702000;    9.273600;  -25.270000
 2;304.8;  -88.239000;    8.486800;  -33.710000
 2;307.2;  -78.296000;    7.578300;  -41.666000
 2;309.6;  -66.478000;    6.566800;  -47.676000
 2;312.0;  -57.334000;    5.457400;  -52.373000
 2;314.4;  -51.015000;    4.233700;  -56.686000
 2;316.8;  -42.566000;    2.994400;  -60.873000
 2;319.2;  -28.582000;    1.717700;  -64.327000
 2;321.6;  -14.112000;    0.469460;  -65.994000
 2;324.0;   -3.619900;   -0.830360;  -66.342000
 2;326.4;    4.965000;   -2.104000;  -66.366000
 2;328.8;   17.032000;   -3.297100;  -65.943000
 2;331.2;   32.802000;   -4.445300;  -64.041000
 2;333.6;   45.035000;   -5.481500;  -60.483000
 2;336.0;   52.431000;   -6.505700;  -56.136000
 2;338.4;   59.787000;   -7.431800;  -51.787000
 2;340.8;   70.990000;   -8.186100;  -46.961000
 2;343.2;   83.870000;   -8.781700;  -40.249000
 2;345.6;   92.026000;   -9.192000;  -32.034000
 2;348.0;   94.931000;   -9.475800;  -23.098000
 2;350.4;   95.051000;   -9.616600;  -14.562000
 2;352.8;   94.653000;   -9.603500;   -6.902500
 2;355.2;   94.648000;   -9.458300;    0.560370
 2;357.6;   95.232000;   -9.140500;    7.804100
 3;  0.0;   95.122000;   -0.812440;   19.361000
 3;  2.4;   93.343000;   -0.165330;   28.835000
 3;  4.8;   86.325000;    0.484770;   38.103000
 3;  7.2;   73.294000;    1.077400;   46.313000
 3;  9.6;   61.037000;    1.558300;   52.249000
 3; 12.0;   53.669000;    2.043700;   57.018000
 3; 14.4;   47.801000;    2.593000;   61.799000
 3; 16.8;   36.756000;    3.125500;   66.401000
 3; 19.2;   20.024000;    3.589200;   69.612000
 3; 21.6;    6.695000;    3.927900;   70.721000
 3; 24.0;   -1.408300;    4.249100;   70.916000
 3; 26.4;  -10.669000;    4.584000;   71.072000
 3; 28.8;  -25.837000;    4.817400;   70.347000
 3; 31.2;  -42.056000;    4.927200;   67.490000
 3; 33.6;  -51.208000;    4.964500;   63.126000
 3; 36.0;  -56.662000;    4.997400;   58.529000
 3; 38.4;  -65.755000;    5.022800;   53.987000
 3; 40.8;  -79.533000;    4.910000;   48.235000
 3; 43.2;  -91.636000;    4.622100;   40.012000
 3; 45.6;  -96.583000;    4.267000;   30.599000
 3; 48.0;  -96.905000;    3.893200;   20.957000
 3; 50.4;  -95.851000;    3.568000;   12.144000
 3; 52.8;  -95.088000;    3.237500;    4.054400
 3; 55.2;  -95.195000;    2.861500;   -3.815300
 3; 57.6;  -96.016000;    2.397700;  -11.799000
 3; 60.0;  -96.728000;    1.841300;  -20.754000
 3; 62.4;  -95.054000;    1.199100;  -30.379000
 3; 64.8;  -87.494000;    0.547130;  -39.958000
 3; 67.2;  -73.378000;   -0.032023;  -48.292000
 3; 69.6;  -60.774000;   -0.496540;  -54.105000
 3; 72.0;  -53.855000;   -0.955450;  -58.806000
 3; 74.4;  -48.277000;   -1.463300;  -63.677000
 3; 76.8;  -36.438000;   -1.979300;  -68.424000
 3; 79.2;  -18.950000;   -2.397500;  -71.564000
 3; 81.6;   -5.447100;   -2.703000;  -72.483000
 3; 84.0;    2.121800;   -2.996100;  -72.568000
 3; 86.4;   11.585000;   -3.325100;  -72.735000
 3; 88.8;   27.867000;   -3.550200;  -71.869000
 3; 91.2;   44.373000;   -3.642800;  -68.684000
 3; 93.6;   52.852000;   -3.640200;  -64.090000
 3; 96.0;   58.080000;   -3.677600;  -59.280000
 3; 98.4;   67.637000;   -3.674600;  -54.650000
 3;100.8;   81.868000;   -3.565200;  -48.717000
 3;103.2;   93.806000;   -3.260500;  -39.979000
 3;105.6;   97.947000;   -2.888900;  -30.361000
 3;108.0;   97.764000;   -2.541700;  -20.684000
 3;110.4;   96.483000;   -2.222400;  -11.769000
 3;112.8;   95.688000;   -1.912500;   -3.800900
 3;115.2;   95.794000;   -1.548800;    4.187400
 3;117.6;   96.604000;   -1.120500;   12.192000
 3;120.0;   97.141000;   -0.564870;   21.278000
 3;122.4;   94.892000;    0.046765;   31.057000
 3;124.8;   86.477000;    0.639730;   40.501000
 3;127.2;   71.954000;    1.162900;   48.558000
 3;129.6;   59.798000;    1.588500;   54.158000
 3;132.0;   53.236000;    2.023200;   58.789000
 3;134.4;   47.008000;    2.529200;   63.626000
 3;136.8;   34.275000;    3.024700;   68.115000
 3;139.2;   16.605000;    3.404000;   70.877000
 3;141.6;    4.058200;    3.681900;   71.508000
 3;144.0;   -3.414300;    3.974600;   71.455000
 3;146.4;  -13.672000;    4.287100;   71.387000
 3;148.8;  -29.766000;    4.478300;   70.200000
 3;151.2;  -45.185000;    4.564600;   66.755000
 3;153.6;  -53.075000;    4.604200;   62.078000
 3;156.0;  -58.558000;    4.663900;   57.350000
 3;158.4;  -68.570000;    4.694500;   52.539000
 3;160.8;  -82.281000;    4.609800;   46.306000
 3;163.2;  -92.846000;    4.357000;   37.670000
 3;165.6;  -96.389000;    4.070900;   28.229000
 3;168.0;  -96.162000;    3.766600;   18.694000
 3;170.4;  -94.985000;    3.495900;   10.074000
 3;172.8;  -94.239000;    3.239700;    2.241400
 3;175.2;  -94.286000;    2.904400;   -5.664200
 3;177.6;  -94.877000;    2.499700;  -13.594000
 3;180.0;  -94.987000;    2.004100;  -22.456000
 3;182.4;  -92.098000;    1.412300;  -32.007000
 3;184.8;  -83.569000;    0.844360;  -40.965000
 3;187.2;  -69.773000;    0.335030;  -48.711000
 3;189.6;  -58.459000;   -0.103720;  -54.144000
 3;192.0;  -51.849000;   -0.586530;  -58.708000
 3;194.4;  -45.007000;   -1.110800;  -63.372000
 3;196.8;  -32.491000;   -1.613800;  -67.565000
 3;199.2;  -16.272000;   -2.035300;  -70.134000
 3;201.6;   -4.368700;   -2.356800;  -70.852000
 3;204.0;    3.646200;   -2.692500;  -70.876000
 3;206.4;   14.060000;   -3.050200;  -70.786000
 3;208.8;   29.268000;   -3.299300;  -69.558000
 3;211.2;   44.004000;   -3.443400;  -66.139000
 3;213.6;   51.875000;   -3.546100;  -61.780000
 3;216.0;   57.870000;   -3.653700;  -57.125000
 3;218.4;   67.735000;   -3.728300;  -52.246000
 3;220.8;   80.438000;   -3.679800;  -46.158000
 3;223.2;   90.501000;   -3.485600;  -37.856000
 3;225.6;   94.323000;   -3.222000;  -28.564000
 3;228.0;   94.508000;   -2.956100;  -19.475000
 3;230.4;   93.588000;   -2.678300;  -10.940000
 3;232.8;   92.968000;   -2.383700;   -3.192300
 3;235.2;   93.016000;   -2.051400;    4.575800
 3;237.6;   93.492000;   -1.626800;   12.377000
 3;240.0;   93.420000;   -1.119700;   21.098000
 3;242.4;   90.605000;   -0.517450;   30.336000
 3;244.8;   82.640000;    0.087466;   39.134000
 3;247.2;   69.759000;    0.671470;   46.802000
 3;249.6;   58.744000;    1.149800;   52.266000
 3;252.0;   51.659000;    1.644600;   56.898000
 3;254.4;   44.768000;    2.210300;   61.504000
 3;256.8;   33.094000;    2.743900;   65.616000
 3;259.2;   17.443000;    3.201700;   68.316000
 3;261.6;    5.270600;    3.573900;   69.179000
 3;264.0;   -2.917300;    3.934300;   69.276000
 3;266.4;  -12.847000;    4.284500;   69.175000
 3;268.8;  -27.325000;    4.565000;   68.054000
 3;271.2;  -41.714000;    4.740800;   65.043000
 3;273.6;  -50.239000;    4.858800;   60.854000
 3;276.0;  -56.411000;    4.978700;   56.354000
 3;278.4;  -65.695000;    5.049600;   51.667000
 3;280.8;  -78.067000;    5.018300;   45.850000
 3;283.2;  -88.535000;    4.833400;   37.823000
 3;285.6;  -93.023000;    4.575000;   28.923000
 3;288.0;  -93.638000;    4.294200;   19.802000
 3;290.4;  -92.927000;    4.000000;   11.259000
 3;292.8;  -92.380000;    3.701300;    3.606100
 3;295.2;  -92.430000;    3.353600;   -4.150500
 3;297.6;  -92.954000;    2.930900;  -11.889000
 3;300.0;  -93.140000;    2.377600;  -20.459000
 3;302.4;  -90.912000;    1.748400;  -29.672000
 3;304.8;  -83.720000;    1.120300;  -38.587000
 3;307.2;  -71.349000;    0.511650;  -46.451000
 3;309.6;  -59.842000;   -0.003645;  -52.210000
 3;312.0;  -52.512000;   -0.534620;  -56.912000
 3;314.4;  -46.142000;   -1.100300;  -61.578000
 3;316.8;  -35.143000;   -1.658200;  -65.926000
 3;319.2;  -19.489000;   -2.157800;  -68.952000
 3;321.6;   -6.848700;   -2.527100;  -70.067000
 3;324.0;    1.509300;   -2.881800;  -70.316000
 3;326.4;   10.943000;   -3.248200;  -70.418000
 3;328.8;   25.236000;   -3.541300;  -69.620000
 3;331.2;   40.535000;   -3.698100;  -66.864000
 3;333.6;   49.713000;   -3.776900;  -62.758000
 3;336.0;   55.745000;   -3.843000;  -58.287000
 3;338.4;   64.743000;   -3.868400;  -53.726000
 3;340.8;   77.622000;   -3.799300;  -48.077000
 3;343.2;   89.187000;   -3.557000;  -40.135000
 3;345.6;   94.354000;   -3.217900;  -31.039000
 3;348.0;   95.098000;   -2.855700;  -21.691000
 3;350.4;   94.351000;   -2.513700;  -12.988000
 3;352.8;   93.758000;   -2.204100;   -5.142000
 3;355.2;   93.847000;   -1.811300;    2.720300
 3;357.6;   94.552000;   -1.371400;   10.563000
 4;  0.0;   95.974000;    2.281600;   22.516000
 4;  2.4;   93.589000;    2.682200;   32.469000
 4;  4.8;   85.274000;    3.009400;   41.728000
 4;  7.2;   71.124000;    3.243100;   49.671000
 4;  9.6;   59.590000;    3.411900;   55.203000
 4; 12.0;   53.408000;    3.597100;   59.943000
 4; 14.4;   47.341000;    3.791600;   64.904000
 4; 16.8;   34.683000;    3.910000;   69.412000
 4; 19.2;   17.076000;    3.928300;   72.149000
 4; 21.6;    4.942200;    3.911900;   72.782000
 4; 24.0;   -2.305200;    3.868600;   72.857000
 4; 26.4;  -12.594000;    3.765900;   72.878000
 4; 28.8;  -28.924000;    3.584000;   71.700000
 4; 31.2;  -44.602000;    3.316300;   68.144000
 4; 33.6;  -52.350000;    3.029500;   63.386000
 4; 36.0;  -57.627000;    2.751000;   58.726000
 4; 38.4;  -68.044000;    2.397700;   53.848000
 4; 40.8;  -82.634000;    1.954900;   47.378000
 4; 43.2;  -93.771000;    1.442200;   38.340000
 4; 45.6;  -97.313000;    0.976170;   28.448000
 4; 48.0;  -96.893000;    0.541900;   18.684000
 4; 50.4;  -95.691000;    0.159160;    9.820000
 4; 52.8;  -95.117000;   -0.203790;    1.785000
 4; 55.2;  -95.539000;   -0.582420;   -6.367000
 4; 57.6;  -96.655000;   -0.962550;  -14.696000
 4; 60.0;  -97.413000;   -1.382300;  -24.121000
 4; 62.4;  -94.975000;   -1.759000;  -34.236000
 4; 64.8;  -85.758000;   -2.056600;  -43.812000
 4; 67.2;  -70.591000;   -2.263500;  -51.701000
 4; 69.6;  -58.927000;   -2.421100;  -57.094000
 4; 72.0;  -53.327000;   -2.568600;  -61.784000
 4; 74.4;  -47.327000;   -2.691000;  -66.821000
 4; 76.8;  -33.725000;   -2.768000;  -71.352000
 4; 79.2;  -15.403000;   -2.707500;  -73.900000
 4; 81.6;   -3.702700;   -2.639500;  -74.352000
 4; 84.0;    3.001500;   -2.560000;  -74.375000
 4; 86.4;   13.937000;   -2.426700;  -74.386000
 4; 88.8;   31.417000;   -2.179800;  -72.968000
 4; 91.2;   46.881000;   -1.888600;  -69.064000
 4; 93.6;   53.764000;   -1.593200;  -64.099000
 4; 96.0;   58.976000;   -1.284400;  -59.323000
 4; 98.4;   70.170000;   -0.936030;  -54.325000
 4;100.8;   85.130000;   -0.494300;  -47.570000
 4;103.2;   95.653000;   -0.006632;  -38.152000
 4;105.6;   98.399000;    0.433240;  -28.021000
 4;108.0;   97.572000;    0.833900;  -18.303000
 4;110.4;   96.250000;    1.192700;   -9.546600
 4;112.8;   95.656000;    1.515700;   -1.479500
 4;115.2;   96.090000;    1.858900;    6.645600
 4;117.6;   97.201000;    2.240900;   15.045000
 4;120.0;   97.748000;    2.623300;   24.562000
 4;122.4;   94.754000;    2.976100;   34.657000
 4;124.8;   84.836000;    3.222900;   44.077000
 4;127.2;   69.490000;    3.395100;   51.750000
 4;129.6;   58.272000;    3.513100;   56.974000
 4;132.0;   52.855000;    3.652400;   61.581000
 4;134.4;   46.136000;    3.763600;   66.532000
 4;136.8;   31.767000;    3.777400;   70.832000
 4;139.2;   13.839000;    3.731900;   73.058000
 4;141.6;    2.687300;    3.628500;   73.287000
 4;144.0;   -4.122800;    3.529900;   73.185000
 4;146.4;  -15.586000;    3.393600;   72.987000
 4;148.8;  -32.767000;    3.114700;   71.309000
 4;151.2;  -47.281000;    2.852500;   67.212000
 4;153.6;  -53.745000;    2.581100;   62.356000
 4;156.0;  -59.406000;    2.301000;   57.487000
 4;158.4;  -70.876000;    1.941000;   52.234000
 4;160.8;  -84.769000;    1.535200;   45.532000
 4;163.2;  -94.416000;    1.072900;   36.105000
 4;165.6;  -96.871000;    0.680430;   26.239000
 4;168.0;  -96.087000;    0.322340;   16.767000
 4;170.4;  -94.820000;    0.001583;    8.045400
 4;172.8;  -94.256000;   -0.293410;    0.190830
 4;175.2;  -94.604000;   -0.602960;   -7.873700
 4;177.6;  -95.428000;   -0.933050;  -16.224000
 4;180.0;  -95.550000;   -1.280300;  -25.470000
 4;182.4;  -91.996000;   -1.588700;  -35.351000
 4;184.8;  -82.088000;   -1.813900;  -44.396000
 4;187.2;  -67.754000;   -1.973700;  -51.723000
 4;189.6;  -57.097000;   -2.100700;  -56.918000
 4;192.0;  -51.402000;   -2.237700;  -61.471000
 4;194.4;  -44.209000;   -2.354600;  -66.254000
 4;196.8;  -30.131000;   -2.390800;  -70.323000
 4;199.2;  -13.543000;   -2.378900;  -72.444000
 4;201.6;   -2.805100;   -2.337000;  -72.810000
 4;204.0;    4.618200;   -2.293000;  -72.795000
 4;206.4;   16.208000;   -2.197000;  -72.522000
 4;208.8;   32.381000;   -2.020000;  -70.812000
 4;211.2;   46.208000;   -1.808700;  -66.928000
 4;213.6;   53.135000;   -1.579800;  -62.173000
 4;216.0;   59.236000;   -1.358000;  -57.443000
 4;218.4;   70.216000;   -1.068600;  -52.260000
 4;220.8;   83.537000;   -0.702280;  -45.434000
 4;223.2;   92.745000;   -0.299380;  -36.421000
 4;225.6;   95.508000;    0.065435;  -26.874000
 4;228.0;   95.088000;    0.418680;  -17.515000
 4;230.4;   94.065000;    0.737560;   -8.931700
 4;232.8;   93.592000;    1.042600;   -1.161700
 4;235.2;   93.893000;    1.390300;    6.801200
 4;237.6;   94.558000;    1.729300;   15.133000
 4;240.0;   94.440000;    2.085200;   24.252000
 4;242.4;   91.055000;    2.401800;   33.701000
 4;244.8;   81.466000;    2.712100;   42.752000
 4;247.2;   67.885000;    2.940600;   50.015000
 4;249.6;   57.468000;    3.088900;   55.200000
 4;252.0;   51.216000;    3.276700;   59.831000
 4;254.4;   44.033000;    3.426100;   64.514000
 4;256.8;   31.051000;    3.526100;   68.510000
 4;259.2;   14.802000;    3.566100;   70.791000
 4;261.6;    3.599600;    3.546700;   71.280000
 4;264.0;   -4.020200;    3.549700;   71.283000
 4;266.4;  -15.026000;    3.471300;   71.037000
 4;268.8;  -30.415000;    3.332000;   69.502000
 4;271.2;  -44.295000;    3.152400;   65.919000
 4;273.6;  -51.784000;    2.949200;   61.333000
 4;276.0;  -57.832000;    2.711700;   56.718000
 4;278.4;  -68.177000;    2.441000;   51.721000
 4;280.8;  -81.241000;    2.083300;   45.222000
 4;283.2;  -91.021000;    1.682300;   36.520000
 4;285.6;  -94.424000;    1.278300;   27.114000
 4;288.0;  -94.396000;    0.861910;   17.850000
 4;290.4;  -93.508000;    0.574760;    9.244600
 4;292.8;  -93.041000;    0.237200;    1.438800
 4;295.2;  -93.348000;   -0.099236;   -6.523300
 4;297.6;  -94.107000;   -0.461060;  -14.649000
 4;300.0;  -94.274000;   -0.872180;  -23.655000
 4;302.4;  -91.375000;   -1.255700;  -33.292000
 4;304.8;  -82.805000;   -1.569300;  -42.304000
 4;307.2;  -69.364000;   -1.836700;  -49.891000
 4;309.6;  -58.315000;   -2.044300;  -55.325000
 4;312.0;  -52.000000;   -2.237300;  -59.979000
 4;314.4;  -45.364000;   -2.414700;  -64.755000
 4;316.8;  -32.894000;   -2.559200;  -68.996000
 4;319.2;  -16.559000;   -2.605100;  -71.558000
 4;321.6;   -4.837200;   -2.619000;  -72.260000
 4;324.0;    2.738600;   -2.612200;  -72.371000
 4;326.4;   13.089000;   -2.558100;  -72.328000
 4;328.8;   28.692000;   -2.420300;  -71.069000
 4;331.2;   43.575000;   -2.204500;  -67.665000
 4;333.6;   51.501000;   -1.956900;  -63.123000
 4;336.0;   57.308000;   -1.697800;  -58.481000
 4;338.4;   67.420000;   -1.376300;  -53.598000
 4;340.8;   81.043000;   -0.973000;  -47.246000
 4;343.2;   91.672000;   -0.486080;  -38.536000
 4;345.6;   95.496000;   -0.032397;  -28.949000
 4;348.0;   95.491000;    0.380960;  -19.481000
 4;350.4;   94.520000;    0.759590;  -10.780000
 4;352.8;   94.022000;    1.124400;   -2.866000
 4;355.2;   94.410000;    1.491100;    5.150400
 4;357.6;   95.388000;    1.884700;   13.315000
 5;  0.0;   96.371000;    4.519000;   25.968000
 5;  2.4;   91.328000;    4.871900;   36.138000
 5;  4.8;   79.365000;    5.090700;   45.137000
 5;  7.2;   64.630000;    5.140700;   52.184000
 5;  9.6;   55.673000;    5.118000;   57.233000
 5; 12.0;   50.788000;    5.081700;   62.136000
 5; 14.4;   41.909000;    5.036200;   67.322000
 5; 16.8;   25.483000;    4.892100;   71.384000
 5; 19.2;    8.810200;    4.606000;   73.190000
 5; 21.6;   -0.153630;    4.261800;   73.430000
 5; 24.0;   -7.291800;    3.941700;   73.655000
 5; 26.4;  -21.190000;    3.561600;   73.534000
 5; 28.8;  -38.975000;    3.077700;   71.476000
 5; 31.2;  -51.246000;    2.479900;   67.130000
 5; 33.6;  -56.228000;    1.950400;   62.345000
 5; 36.0;  -62.926000;    1.443300;   57.826000
 5; 38.4;  -76.470000;    0.865640;   52.563000
 5; 40.8;  -90.784000;    0.229360;   45.042000
 5; 43.2;  -98.182000;   -0.494300;   35.281000
 5; 45.6;  -98.980000;   -1.122700;   25.155000
 5; 48.0;  -97.554000;   -1.651100;   15.725000
 5; 50.4;  -96.208000;   -2.090200;    7.179600
 5; 52.8;  -95.841000;   -2.465900;   -0.750390
 5; 55.2;  -96.521000;   -2.855300;   -9.011500
 5; 57.6;  -97.634000;   -3.245900;  -17.765000
 5; 60.0;  -97.439000;   -3.648100;  -27.671000
 5; 62.4;  -92.028000;   -3.997600;  -37.998000
 5; 64.8;  -78.901000;   -4.174600;  -47.164000
 5; 67.2;  -63.499000;   -4.206700;  -54.107000
 5; 69.6;  -54.895000;   -4.145100;  -58.979000
 5; 72.0;  -50.500000;   -4.074900;  -63.875000
 5; 74.4;  -41.249000;   -4.008400;  -69.112000
 5; 76.8;  -23.805000;   -3.790700;  -73.125000
 5; 79.2;   -7.213700;   -3.446400;  -74.701000
 5; 81.6;    0.956950;   -3.069700;  -74.822000
 5; 84.0;    8.159300;   -2.704800;  -75.066000
 5; 86.4;   22.977000;   -2.304600;  -74.899000
 5; 88.8;   41.368000;   -1.768700;  -72.571000
 5; 91.2;   52.919000;   -1.161600;  -67.914000
 5; 93.6;   57.258000;   -0.606320;  -62.985000
 5; 96.0;   64.330000;   -0.083926;  -58.444000
 5; 98.4;   78.624000;    0.484770;  -52.977000
 5;100.8;   92.825000;    1.147900;  -45.157000
 5;103.2;   99.484000;    1.852500;  -35.023000
 5;105.6;   99.706000;    2.450700;  -24.924000
 5;108.0;   98.037000;    2.951100;  -15.434000
 5;110.4;   96.677000;    3.369700;   -6.911400
 5;112.8;   96.347000;    3.727400;    0.998640
 5;115.2;   97.032000;    4.097100;    9.317800
 5;117.6;   98.061000;    4.437600;   18.180000
 5;120.0;   97.467000;    4.806200;   28.161000
 5;122.4;   91.220000;    5.122100;   38.473000
 5;124.8;   77.437000;    5.253500;   47.375000
 5;127.2;   62.411000;    5.241600;   54.029000
 5;129.6;   54.391000;    5.128100;   58.812000
 5;132.0;   49.795000;    5.041000;   63.674000
 5;134.4;   39.621000;    4.911100;   68.783000
 5;136.8;   21.926000;    4.693000;   72.464000
 5;139.2;    5.901800;    4.309500;   73.741000
 5;141.6;   -1.900100;    3.939900;   73.723000
 5;144.0;   -9.621500;    3.562000;   73.815000
 5;146.4;  -24.907000;    3.128500;   73.339000
 5;148.8;  -42.419000;    2.590800;   70.695000
 5;151.2;  -52.967000;    1.995600;   65.952000
 5;153.6;  -57.368000;    1.461200;   61.092000
 5;156.0;  -64.963000;    0.953020;   56.468000
 5;158.4;  -79.011000;    0.394030;   50.808000
 5;160.8;  -92.000000;   -0.235900;   42.950000
 5;163.2;  -97.879000;   -0.906910;   32.949000
 5;165.6;  -98.015000;   -1.444600;   23.130000
 5;168.0;  -96.454000;   -1.900500;   13.908000
 5;170.4;  -95.172000;   -2.261200;    5.545500
 5;172.8;  -94.826000;   -2.582400;   -2.235200
 5;175.2;  -95.396000;   -2.900500;  -10.489000
 5;177.6;  -96.154000;   -3.220900;  -19.126000
 5;180.0;  -95.175000;   -3.537900;  -28.835000
 5;182.4;  -88.800000;   -3.793700;  -38.796000
 5;184.8;  -75.776000;   -3.906800;  -47.369000
 5;187.2;  -61.594000;   -3.896800;  -53.919000
 5;189.6;  -53.595000;   -3.794800;  -58.681000
 5;192.0;  -48.468000;   -3.710400;  -63.447000
 5;194.4;  -38.306000;   -3.565900;  -68.351000
 5;196.8;  -21.738000;   -3.362400;  -71.867000
 5;199.2;   -6.552200;   -3.012500;  -73.240000
 5;201.6;    1.576000;   -2.658500;  -73.377000
 5;204.0;    9.632000;   -2.320600;  -73.489000
 5;206.4;   24.366000;   -1.920000;  -72.993000
 5;208.8;   41.063000;   -1.434900;  -70.503000
 5;211.2;   51.765000;   -0.880770;  -65.994000
 5;213.6;   56.859000;   -0.382280;  -61.253000
 5;216.0;   64.501000;    0.096801;  -56.653000
 5;218.4;   77.864000;    0.620690;  -51.008000
 5;220.8;   90.396000;    1.194200;  -43.357000
 5;223.2;   96.546000;    1.779000;  -33.688000
 5;225.6;   97.137000;    2.320400;  -24.042000
 5;228.0;   95.895000;    2.795400;  -14.951000
 5;230.4;   94.766000;    3.144900;   -6.603500
 5;232.8;   94.424000;    3.467500;    1.139100
 5;235.2;   94.891000;    3.794600;    9.283400
 5;237.6;   95.503000;    4.106400;   17.824000
 5;240.0;   94.461000;    4.409200;   27.327000
 5;242.4;   88.366000;    4.694900;   37.161000
 5;244.8;   76.185000;    4.827500;   45.631000
 5;247.2;   62.372000;    4.840200;   52.252000
 5;249.6;   54.057000;    4.768800;   57.089000
 5;252.0;   48.586000;    4.706500;   61.818000
 5;254.4;   38.791000;    4.619800;   66.655000
 5;256.8;   23.006000;    4.439500;   70.216000
 5;259.2;    7.836000;    4.138900;   71.742000
 5;261.6;   -0.881560;    3.819600;   71.953000
 5;264.0;   -8.902700;    3.475400;   72.068000
 5;266.4;  -22.817000;    3.115400;   71.622000
 5;268.8;  -39.022000;    2.650900;   69.366000
 5;271.2;  -50.197000;    2.150100;   65.116000
 5;273.6;  -55.665000;    1.672900;   60.534000
 5;276.0;  -63.060000;    1.203600;   55.998000
 5;278.4;  -75.841000;    0.710300;   50.588000
 5;280.8;  -88.534000;    0.144970;   43.229000
 5;283.2;  -95.309000;   -0.462560;   33.797000
 5;285.6;  -96.421000;   -1.017800;   24.282000
 5;288.0;  -95.400000;   -1.495400;   15.156000
 5;290.4;  -94.312000;   -1.886700;    6.770500
 5;292.8;  -93.995000;   -2.238500;   -0.919630
 5;295.2;  -94.456000;   -2.579800;   -9.052900
 5;297.6;  -95.169000;   -2.930800;  -17.541000
 5;300.0;  -94.433000;   -3.287400;  -26.998000
 5;302.4;  -88.970000;   -3.601000;  -36.894000
 5;304.8;  -77.233000;   -3.795200;  -45.562000
 5;307.2;  -63.248000;   -3.859000;  -52.398000
 5;309.6;  -54.483000;   -3.812400;  -57.352000
 5;312.0;  -49.165000;   -3.782900;  -62.113000
 5;314.4;  -40.105000;   -3.737700;  -67.057000
 5;316.8;  -24.668000;   -3.586100;  -70.862000
 5;319.2;   -8.956200;   -3.313100;  -72.657000
 5;321.6;    0.085709;   -3.006900;  -72.994000
 5;324.0;    7.669600;   -2.690700;  -73.237000
 5;326.4;   21.217000;   -2.343000;  -73.029000
 5;328.8;   38.107000;   -1.898700;  -71.010000
 5;331.2;   50.116000;   -1.364700;  -66.841000
 5;333.6;   55.668000;   -0.861730;  -62.177000
 5;336.0;   62.511000;   -0.379290;  -57.644000
 5;338.4;   75.254000;    0.150570;  -52.381000
 5;340.8;   88.713000;    0.759970;  -45.130000
 5;343.2;   96.236000;    1.430200;  -35.631000
 5;345.6;   97.546000;    2.028800;  -25.956000
 5;348.0;   96.455000;    2.543700;  -16.656000
 5;350.4;   95.334000;    2.979100;   -8.212900
 5;352.8;   95.021000;    3.364500;   -0.383060
 5;355.2;   95.614000;    3.745000;    7.772300
 5;357.6;   96.598000;    4.127700;   16.303000
 6;  0.0;   98.162000;    6.899900;   28.716000
 6;  2.4;   91.926000;    6.975300;   38.774000
 6;  4.8;   78.467000;    6.874800;   47.245000
 6;  7.2;   63.694000;    6.622000;   53.624000
 6;  9.6;   55.986000;    6.306900;   58.263000
 6; 12.0;   51.473000;    5.972700;   63.167000
 6; 14.4;   41.117000;    5.545900;   68.256000
 6; 16.8;   23.217000;    4.986500;   71.776000
 6; 19.2;    7.159400;    4.336800;   72.919000
 6; 21.6;   -0.595300;    3.683000;   72.916000
 6; 24.0;   -8.269700;    3.015300;   73.139000
 6; 26.4;  -23.936000;    2.274100;   72.686000
 6; 28.8;  -42.071000;    1.458200;   69.976000
 6; 31.2;  -52.905000;    0.597910;   65.183000
 6; 33.6;  -57.213000;   -0.156370;   60.445000
 6; 36.0;  -65.110000;   -0.930060;   55.930000
 6; 38.4;  -80.059000;   -1.743300;   50.234000
 6; 40.8;  -94.045000;   -2.576800;   42.142000
 6; 43.2; -100.180000;   -3.369900;   31.923000
 6; 45.6; -100.220000;   -4.002400;   22.074000
 6; 48.0;  -98.633000;   -4.515100;   12.843000
 6; 50.4;  -97.515000;   -4.897500;    4.626800
 6; 52.8;  -97.469000;   -5.244000;   -3.120600
 6; 55.2;  -98.470000;   -5.531200;  -11.408000
 6; 57.6;  -99.741000;   -5.799600;  -20.267000
 6; 60.0;  -99.185000;   -5.970300;  -30.386000
 6; 62.4;  -92.446000;   -6.022200;  -40.620000
 6; 64.8;  -77.890000;   -5.893400;  -49.180000
 6; 67.2;  -62.604000;   -5.595700;  -55.380000
 6; 69.6;  -55.387000;   -5.246600;  -59.868000
 6; 72.0;  -51.327000;   -4.857900;  -64.785000
 6; 74.4;  -40.521000;   -4.391100;  -69.903000
 6; 76.8;  -21.909000;   -3.804200;  -73.327000
 6; 79.2;   -5.973800;   -3.119300;  -74.297000
 6; 81.6;    1.084900;   -2.459500;  -74.239000
 6; 84.0;    8.884700;   -1.774300;  -74.489000
 6; 86.4;   25.646000;   -0.998390;  -73.930000
 6; 88.8;   44.059000;   -0.163460;  -70.945000
 6; 91.2;   54.137000;    0.690890;  -65.921000
 6; 93.6;   58.037000;    1.451500;  -61.063000
 6; 96.0;   66.414000;    2.233000;  -56.479000
 6; 98.4;   81.877000;    3.048200;  -50.636000
 6;100.8;   95.758000;    3.883500;  -42.176000
 6;103.2;  101.180000;    4.654900;  -31.771000
 6;105.6;  100.800000;    5.261400;  -21.857000
 6;108.0;   99.056000;    5.733000;  -12.666000
 6;110.4;   97.939000;    6.124700;   -4.525200
 6;112.8;   97.937000;    6.418900;    3.231000
 6;115.2;   98.953000;    6.692600;   11.671000
 6;117.6;  100.130000;    6.930900;   20.605000
 6;120.0;   99.190000;    7.055900;   30.718000
 6;122.4;   91.649000;    7.057800;   40.893000
 6;124.8;   76.618000;    6.868500;   49.207000
 6;127.2;   61.881000;    6.541000;   55.174000
 6;129.6;   55.110000;    6.183300;   59.604000
 6;132.0;   50.578000;    5.775500;   64.512000
 6;134.4;   38.911000;    5.308400;   69.449000
 6;136.8;   20.046000;    4.690400;   72.562000
 6;139.2;    4.864500;    3.989900;   73.256000
 6;141.6;   -2.000600;    3.305500;   73.065000
 6;144.0;  -10.459000;    2.599400;   73.129000
 6;146.4;  -27.174000;    1.818600;   72.269000
 6;148.8;  -44.602000;    0.959360;   69.060000
 6;151.2;  -53.910000;    0.115840;   64.013000
 6;153.6;  -58.022000;   -0.629840;   59.257000
 6;156.0;  -66.837000;   -1.390100;   54.608000
 6;158.4;  -82.055000;   -2.199600;   48.537000
 6;160.8;  -94.677000;   -2.974800;   40.111000
 6;163.2;  -99.426000;   -3.710800;   29.933000
 6;165.6;  -98.993000;   -4.268700;   20.207000
 6;168.0;  -97.367000;   -4.711900;   11.282000
 6;170.4;  -96.315000;   -5.058000;    3.209600
 6;172.8;  -96.274000;   -5.321300;   -4.474600
 6;175.2;  -97.163000;   -5.580800;  -12.760000
 6;177.6;  -98.022000;   -5.786900;  -21.579000
 6;180.0;  -96.571000;   -5.886300;  -31.440000
 6;182.4;  -88.775000;   -5.868300;  -41.282000
 6;184.8;  -74.449000;   -5.687600;  -49.267000
 6;187.2;  -60.510000;   -5.359400;  -55.133000
 6;189.6;  -53.761000;   -5.002400;  -59.556000
 6;192.0;  -48.718000;   -4.595800;  -64.333000
 6;194.4;  -36.986000;   -4.111100;  -69.060000
 6;196.8;  -19.320000;   -3.500600;  -72.016000
 6;199.2;   -5.022600;   -2.830300;  -72.808000
 6;201.6;    2.165400;   -2.156300;  -72.770000
 6;204.0;   11.033000;   -1.467000;  -72.845000
 6;206.4;   27.366000;   -0.693690;  -71.954000
 6;208.8;   43.984000;    0.120330;  -68.826000
 6;211.2;   53.272000;    0.938450;  -63.992000
 6;213.6;   57.960000;    1.671400;  -59.315000
 6;216.0;   66.862000;    2.433200;  -54.642000
 6;218.4;   81.254000;    3.192300;  -48.640000
 6;220.8;   93.427000;    3.967100;  -40.421000
 6;223.2;   98.381000;    4.666100;  -30.499000
 6;225.6;   98.332000;    5.219900;  -21.017000
 6;228.0;   96.956000;    5.667600;  -12.200000
 6;230.4;   95.989000;    6.018300;   -4.167900
 6;232.8;   95.951000;    6.295300;    3.423600
 6;235.2;   96.708000;    6.529100;   11.595000
 6;237.6;   97.421000;    6.725500;   20.287000
 6;240.0;   95.962000;    6.846800;   29.900000
 6;242.4;   88.713000;    6.835600;   39.552000
 6;244.8;   75.169000;    6.669500;   47.559000
 6;247.2;   61.496000;    6.374900;   53.506000
 6;249.6;   54.183000;    6.026100;   58.001000
 6;252.0;   48.877000;    5.650100;   62.696000
 6;254.4;   37.801000;    4.983900;   67.400000
 6;256.8;   20.921000;    4.586600;   70.459000
 6;259.2;    6.295100;    3.969000;   71.433000
 6;261.6;   -1.478600;    3.337600;   71.432000
 6;264.0;   -9.952900;    2.684900;   71.516000
 6;266.4;  -25.306000;    1.947400;   70.765000
 6;268.8;  -41.776000;    1.145300;   67.945000
 6;271.2;  -51.830000;    0.341010;   63.364000
 6;273.6;  -56.850000;   -0.387500;   58.756000
 6;276.0;  -65.130000;   -1.109700;   54.226000
 6;278.4;  -79.116000;   -1.878900;   48.420000
 6;280.8;  -91.621000;   -2.665300;   40.532000
 6;283.2;  -97.362000;   -3.385900;   30.803000
 6;285.6;  -97.753000;   -3.969600;   21.345000
 6;288.0;  -96.557000;   -4.449800;   12.535000
 6;290.4;  -95.605000;   -4.821300;    4.433900
 6;292.8;  -95.524000;   -5.125600;   -3.170500
 6;295.2;  -96.281000;   -5.394500;  -11.304000
 6;297.6;  -97.111000;   -5.619300;  -19.904000
 6;300.0;  -96.107000;   -5.769400;  -29.490000
 6;302.4;  -89.597000;   -5.807500;  -39.286000
 6;304.8;  -76.486000;   -5.665200;  -47.543000
 6;307.2;  -62.502000;   -5.406400;  -53.710000
 6;309.6;  -54.652000;   -5.084600;  -58.336000
 6;312.0;  -49.520000;   -4.720500;  -63.121000
 6;314.4;  -39.385000;   -4.317600;  -67.877000
 6;316.8;  -22.412000;   -3.780600;  -71.274000
 6;319.2;   -7.104200;   -3.143600;  -72.459000
 6;321.6;    0.833060;   -2.536400;  -72.573000
 6;324.0;    8.927500;   -1.881900;  -72.761000
 6;326.4;   24.223000;   -1.138000;  -72.238000
 6;328.8;   41.371000;   -0.368830;  -69.608000
 6;331.2;   52.150000;    0.443320;  -64.989000
 6;333.6;   57.043000;    1.175900;  -60.352000
 6;336.0;   64.934000;    1.896600;  -55.834000
 6;338.4;   79.100000;    2.683700;  -50.151000
 6;340.8;   92.335000;    3.383500;  -42.295000
 6;343.2;   98.561000;    4.234100;  -32.448000
 6;345.6;   99.029000;    4.873400;  -22.800000
 6;348.0;   97.749000;    5.369300;  -13.844000
 6;350.4;   96.734000;    5.773300;   -5.679300
 6;352.8;   96.689000;    6.118300;    1.989000
 6;355.2;   97.591000;    6.404000;   10.156000
 6;357.6;   98.704000;    6.696400;   18.876000
 7;  0.0;   98.131000;   11.414000;   30.932000
 7;  2.4;   86.880000;   11.052000;   40.436000
 7;  4.8;   70.760000;   10.426000;   47.656000
 7;  7.2;   58.755000;    9.566700;   52.817000
 7;  9.6;   53.744000;    8.644800;   57.250000
 7; 12.0;   47.008000;    7.682200;   62.414000
 7; 14.4;   30.939000;    6.602600;   67.163000
 7; 16.8;   11.702000;    5.345400;   69.574000
 7; 19.2;   -0.251500;    3.977200;   69.982000
 7; 21.6;   -6.383600;    2.661300;   70.164000
 7; 24.0;  -18.304000;    1.333900;   70.612000
 7; 26.4;  -38.039000;   -0.076085;   69.493000
 7; 28.8;  -53.624000;   -1.514100;   65.812000
 7; 31.2;  -59.737000;   -2.903500;   61.039000
 7; 33.6;  -64.414000;   -4.152900;   56.854000
 7; 36.0;  -76.578000;   -5.367200;   52.516000
 7; 38.4;  -93.014000;   -6.546400;   46.201000
 7; 40.8; -103.040000;   -7.677900;   37.446000
 7; 43.2; -104.980000;   -8.671100;   27.363000
 7; 45.6; -103.400000;   -9.401100;   18.183000
 7; 48.0; -101.540000;   -9.915300;    9.839600
 7; 50.4; -100.580000;  -10.238000;    2.222900
 7; 52.8; -100.740000;  -10.435000;   -5.215900
 7; 55.2; -101.740000;  -10.532000;  -13.466000
 7; 57.6; -102.230000;  -10.530000;  -22.457000
 7; 60.0;  -98.699000;  -10.391000;  -32.597000
 7; 62.4;  -86.707000;  -10.012000;  -42.155000
 7; 64.8;  -69.667000;   -9.345100;  -49.403000
 7; 67.2;  -57.830000;   -8.446700;  -54.453000
 7; 69.6;  -53.427000;   -7.519200;  -58.832000
 7; 72.0;  -46.435000;   -6.549800;  -64.111000
 7; 74.4;  -29.522000;   -5.463200;  -68.823000
 7; 76.8;   -9.965700;   -4.228000;  -71.062000
 7; 79.2;    1.262600;   -2.822500;  -71.308000
 7; 81.6;    7.041700;   -1.538300;  -71.513000
 7; 84.0;   19.823000;   -0.189600;  -71.941000
 7; 86.4;   40.216000;    1.210300;  -70.615000
 7; 88.8;   55.235000;    2.662500;  -66.697000
 7; 91.2;   60.656000;    4.060500;  -61.685000
 7; 93.6;   65.434000;    5.293500;  -57.471000
 7; 96.0;   78.313000;    6.520100;  -53.032000
 7; 98.4;   94.779000;    7.712800;  -46.484000
 7;100.8;  104.180000;    8.874400;  -37.287000
 7;103.2;  105.430000;    9.850900;  -27.115000
 7;105.6;  103.630000;   10.557000;  -18.027000
 7;108.0;  101.700000;   11.050000;   -9.653400
 7;110.4;  100.770000;   11.362000;   -2.069300
 7;112.8;  100.990000;   11.536000;    5.266100
 7;115.2;  101.990000;   11.616000;   13.599000
 7;117.6;  102.270000;   11.583000;   22.737000
 7;120.0;   98.243000;   11.404000;   32.761000
 7;122.4;   85.497000;   10.982000;   42.236000
 7;124.8;   68.616000;   10.286000;   49.214000
 7;127.2;   57.378000;    9.345700;   54.121000
 7;129.6;   52.968000;    8.401000;   58.503000
 7;132.0;   45.278000;    7.405100;   63.702000
 7;134.4;   27.698000;    6.290100;   68.171000
 7;136.8;    8.691500;    5.013800;   70.124000
 7;139.2;   -1.939400;    3.631400;   70.188000
 7;141.6;   -8.053800;    2.285300;   70.269000
 7;144.0;  -21.126000;    0.965340;   70.475000
 7;146.4;  -41.006000;   -0.424470;   68.868000
 7;148.8;  -55.001000;   -1.862800;   64.848000
 7;151.2;  -60.198000;   -3.245900;   59.910000
 7;153.6;  -65.370000;   -4.466600;   55.755000
 7;156.0;  -78.348000;   -5.658500;   51.170000
 7;158.4;  -94.009000;   -6.826500;   44.508000
 7;160.8; -102.650000;   -7.925100;   35.546000
 7;163.2; -103.820000;   -8.841000;   25.583000
 7;165.6; -102.110000;   -9.498200;   16.624000
 7;168.0; -100.290000;   -9.951900;    8.443400
 7;170.4;  -99.396000;  -10.242000;    0.964650
 7;172.8;  -99.538000;  -10.388000;   -6.369200
 7;175.2; -100.350000;  -10.448000;  -14.598000
 7;177.6; -100.280000;  -10.382000;  -23.486000
 7;180.0;  -95.889000;  -10.155000;  -33.293000
 7;182.4;  -83.444000;   -9.698800;  -42.440000
 7;184.8;  -67.422000;   -9.003500;  -49.216000
 7;187.2;  -56.564000;   -8.059100;  -54.070000
 7;189.6;  -51.734000;   -7.107700;  -58.420000
 7;192.0;  -43.767000;   -6.112500;  -63.413000
 7;194.4;  -26.924000;   -4.990500;  -67.708000
 7;196.8;   -9.025500;   -3.738400;  -69.657000
 7;199.2;    1.500100;   -2.384100;  -69.887000
 7;201.6;    8.143900;   -1.090200;  -70.080000
 7;204.0;   21.190000;    0.230110;  -70.266000
 7;206.4;   40.292000;    1.600500;  -68.694000
 7;208.8;   53.986000;    3.001900;  -64.826000
 7;211.2;   59.725000;    4.366300;  -60.007000
 7;213.6;   65.225000;    5.591800;  -55.831000
 7;216.0;   77.575000;    6.783700;  -51.242000
 7;218.4;   92.599000;    7.952900;  -44.627000
 7;220.8;  101.110000;    9.030900;  -35.919000
 7;223.2;  102.680000;    9.948000;  -26.226000
 7;225.6;  101.310000;   10.599000;  -17.538000
 7;228.0;   99.665000;   11.061000;   -9.368800
 7;230.4;   98.835000;   11.342000;   -1.913300
 7;232.8;   98.956000;   11.498000;    5.327800
 7;235.2;   99.630000;   11.533000;   13.482000
 7;237.6;   99.463000;   11.468000;   22.253000
 7;240.0;   95.177000;   11.233000;   31.814000
 7;242.4;   83.324000;   10.771000;   40.832000
 7;244.8;   68.135000;   10.070000;   47.567000
 7;247.2;   57.168000;    9.148900;   52.542000
 7;249.6;   51.964000;    8.183300;   56.923000
 7;252.0;   44.215000;    7.185900;   61.853000
 7;254.4;   28.004000;    6.057100;   66.196000
 7;256.8;   10.359000;    4.812100;   68.269000
 7;259.2;   -0.714420;    3.476500;   68.616000
 7;261.6;   -7.606700;    2.184900;   68.771000
 7;264.0;  -20.100000;    0.893640;   68.957000
 7;266.4;  -38.583000;   -0.493550;   67.541000
 7;268.8;  -52.529000;   -1.878500;   63.891000
 7;271.2;  -58.760000;   -3.244800;   59.256000
 7;273.6;  -64.279000;   -4.464000;   55.160000
 7;276.0;  -76.173000;   -5.642800;   50.747000
 7;278.4;  -91.148000;   -6.801900;   44.357000
 7;280.8; -100.140000;   -7.847400;   35.921000
 7;283.2; -102.230000;   -8.760400;   26.361000
 7;285.6; -101.070000;   -9.449700;   17.541000
 7;288.0;  -99.516000;   -9.946300;    9.482600
 7;290.4;  -98.692000;  -10.233000;    1.989400
 7;292.8;  -98.788000;  -10.419000;   -5.261400
 7;295.2;  -99.491000;  -10.487000;  -13.306000
 7;297.6;  -99.538000;  -10.458000;  -22.004000
 7;300.0;  -95.855000;  -10.266000;  -31.597000
 7;302.4;  -84.730000;   -9.878400;  -40.778000
 7;304.8;  -69.398000;   -9.231200;  -47.790000
 7;307.2;  -57.732000;   -8.354500;  -52.929000
 7;309.6;  -52.439000;   -7.413500;  -57.299000
 7;312.0;  -45.316000;   -6.428800;  -62.268000
 7;314.4;  -29.722000;   -5.319100;  -66.804000
 7;316.8;  -11.671000;   -4.094700;  -69.159000
 7;319.2;    0.082044;   -2.748200;  -69.655000
 7;321.6;    6.729100;   -1.453600;  -69.903000
 7;324.0;   18.539000;   -0.152630;  -70.288000
 7;326.4;   37.457000;    1.229300;  -69.157000
 7;328.8;   52.515000;    2.640800;  -65.646000
 7;331.2;   59.112000;    4.004100;  -60.977000
 7;333.6;   64.169000;    5.231500;  -56.847000
 7;336.0;   75.806000;    6.393900;  -52.510000
 7;338.4;   91.481000;    7.572000;  -46.280000
 7;340.8;  101.420000;    8.651500;  -37.796000
 7;343.2;  103.790000;    9.620500;  -28.020000
 7;345.6;  102.620000;   10.334000;  -19.002000
 7;348.0;  100.950000;   10.863000;  -10.785000
 7;350.4;  100.040000;   11.121000;   -3.206700
 7;352.8;  100.180000;   11.412000;    4.107200
 7;355.2;  101.080000;   11.511000;   12.219000
 7;357.6;  101.460000;   11.528000;   21.027000
