# *CALIBRATION************
# Voff:  -0.000557, -0.000502, 0.000355
# Oe*Vref/V:  18766.300781, 19118.269531, 18920.400390
# mV/Vref/Oe:  0.053287, 0.052306, 0.052853
# Hrel:  0.000000, 0.000000, 0.000000
# ADC Vref:  4.000000
# ADC Bits:  16
# ADC samples:  10
# ADC Speed:  4
# Linearization
# A0:  0.000000, 0.000000, 0.000000
# A1:  1.000000, 1.000000, 1.000000
# A2:  0.000000, 0.000000, 0.000000
# A3:  0.222500, 0.222500, 0.222500
# A4:  0.000000, 0.000000, 0.000000
# A5:  3.403000, 3.403000, 3.403000
# Orthogonalization
# 1.000000, 0.000000, 0.000000
# 0.000000, 1.000000, 0.000000
# 0.000000, 0.000000, 1.000000
# EEPROM Cal Valid, Valid, Valid
# EEPROM Lin Valid, Valid, Valid
# EEPROM Ortho Not Valid
# Sensor ID:   USB25103-1715507101             
# Software Version:  MDTUSBMAG3D.V9.20220510
# ************************
# 
# SENSOR_NB_SAMPLE: 10 
# SENSOR_GAIN: 1 
# SENSOR_READ_DELAY: 0.7 
# SENSOR_Oe_mT: 0.1 
# working dist: 3 mm
# Rotation step angle: 2.4°
# sensor pos #1: 0 mm
# sensor pos #2: 15 mm
# sensor pos #3: 30 mm
# sensor pos #4: 45 mm
# sensor pos #5: 60 mm
# sensor pos #6: 75 mm
# sensor pos #7: 90 mm
#
# ZPos#; a[°]; X1_magn[mT]; Y1_magn[mT]; Z1_magn[mT]
 1;  0.0;  126.400000;  -36.541000;   14.344000
 1;  2.4;  130.570000;  -35.704000;   23.923000
 1;  4.8;  130.320000;  -33.972000;   35.105000
 1;  7.2;  111.170000;  -31.020000;   46.346000
 1;  9.6;   80.805000;  -27.370000;   52.962000
 1; 12.0;   68.365000;  -23.427000;   55.754000
 1; 14.4;   73.753000;  -19.621000;   59.343000
 1; 16.8;   72.813000;  -15.683000;   66.125000
 1; 19.2;   41.790000;  -10.922000;   72.965000
 1; 21.6;    5.355700;   -5.962400;   74.330000
 1; 24.0;   -2.753800;   -1.177600;   72.099000
 1; 26.4;    2.524600;    3.488800;   72.004000
 1; 28.8;  -12.585000;    8.315100;   74.409000
 1; 31.2;  -53.794000;   13.483000;   73.763000
 1; 33.6;  -77.319000;   18.133000;   67.506000
 1; 36.0;  -73.297000;   22.171000;   60.443000
 1; 38.4;  -69.569000;   25.961000;   56.976000
 1; 40.8;  -89.230000;   29.812000;   54.865000
 1; 43.2; -125.270000;   33.511000;   48.415000
 1; 45.6; -138.690000;   36.174000;   37.158000
 1; 48.0; -135.380000;   37.791000;   24.849000
 1; 50.4; -130.430000;   38.632000;   14.644000
 1; 52.8; -127.540000;   39.009000;    6.615300
 1; 55.2; -126.950000;   39.126000;   -0.558230
 1; 57.6; -128.580000;   39.062000;   -7.508500
 1; 60.0; -132.520000;   38.720000;  -15.687000
 1; 62.4; -137.760000;   37.864000;  -25.874000
 1; 64.8; -137.930000;   36.120000;  -38.009000
 1; 67.2; -114.180000;   33.126000;  -49.795000
 1; 69.6;  -79.128000;   29.411000;  -56.096000
 1; 72.0;  -68.760000;   25.484000;  -58.139000
 1; 74.4;  -77.311000;   21.704000;  -61.629000
 1; 76.8;  -75.960000;   17.594000;  -68.910000
 1; 79.2;  -38.950000;   12.544000;  -75.768000
 1; 81.6;   -1.050900;    7.273300;  -76.324000
 1; 84.0;    2.677400;    2.290500;  -73.539000
 1; 86.4;   -4.490000;   -2.468100;  -73.849000
 1; 88.8;   14.986000;   -7.525100;  -76.685000
 1; 91.2;   61.207000;  -12.913000;  -75.427000
 1; 93.6;   81.232000;  -17.586000;  -68.309000
 1; 96.0;   73.641000;  -21.657000;  -61.076000
 1; 98.4;   70.923000;  -25.490000;  -58.037000
 1;100.8;   95.621000;  -29.419000;  -55.799000
 1;103.2;  132.510000;  -33.102000;  -48.212000
 1;105.6;  141.520000;  -35.644000;  -36.129000
 1;108.0;  136.420000;  -37.135000;  -23.746000
 1;110.4;  131.140000;  -37.854000;  -13.732000
 1;112.8;  128.310000;  -38.119000;   -5.898100
 1;115.2;  127.850000;  -38.189000;    1.247700
 1;117.6;  129.690000;  -38.050000;    8.281600
 1;120.0;  133.790000;  -37.631000;   16.673000
 1;122.4;  138.830000;  -36.651000;   27.340000
 1;124.8;  136.500000;  -34.732000;   39.706000
 1;127.2;  108.230000;  -31.590000;   50.893000
 1;129.6;   74.932000;  -27.781000;   56.264000
 1;132.0;   68.762000;  -23.849000;   58.079000
 1;134.4;   77.258000;  -20.065000;   62.008000
 1;136.8;   70.996000;  -15.816000;   69.432000
 1;139.2;   30.756000;  -10.688000;   75.333000
 1;141.6;   -2.035800;   -5.446800;   74.940000
 1;144.0;   -2.525400;   -0.701910;   72.335000
 1;146.4;    1.661800;    4.082900;   72.938000
 1;148.8;  -22.409000;    9.046600;   75.141000
 1;151.2;  -64.714000;   14.198000;   72.804000
 1;153.6;  -79.254000;   18.692000;   65.417000
 1;156.0;  -72.015000;   22.619000;   58.704000
 1;158.4;  -72.756000;   26.377000;   55.784000
 1;160.8;  -98.613000;   30.140000;   52.815000
 1;163.2; -130.050000;   33.548000;   44.649000
 1;165.6; -136.340000;   35.882000;   32.915000
 1;168.0; -131.650000;   37.237000;   21.162000
 1;170.4; -126.960000;   37.904000;   11.674000
 1;172.8; -124.400000;   38.190000;    4.112000
 1;175.2; -124.020000;   38.252000;   -2.935500
 1;177.6; -125.700000;   38.097000;   -9.936100
 1;180.0; -129.280000;   37.629000;  -18.307000
 1;182.4; -132.840000;   36.599000;  -28.592000
 1;184.8; -128.150000;   34.655000;  -40.168000
 1;187.2; -101.360000;   31.558000;  -50.343000
 1;189.6;  -73.526000;   27.933000;  -55.372000
 1;192.0;  -68.023000;   24.207000;  -57.589000
 1;194.4;  -73.381000;   20.476000;  -61.784000
 1;196.8;  -64.414000;   16.358000;  -68.569000
 1;199.2;  -28.853000;   11.467000;  -73.684000
 1;201.6;   -1.104000;    6.534300;  -73.502000
 1;204.0;    1.164400;    1.810700;  -71.495000
 1;206.4;    0.747660;   -2.811300;  -72.097000
 1;208.8;   23.636000;   -7.607300;  -73.660000
 1;211.2;   60.326000;  -12.605000;  -71.170000
 1;213.6;   73.941000;  -16.966000;  -64.546000
 1;216.0;   69.793000;  -20.814000;  -58.362000
 1;218.4;   72.120000;  -24.526000;  -55.138000
 1;220.8;   94.564000;  -28.114000;  -51.872000
 1;223.2;  122.210000;  -31.408000;  -44.134000
 1;225.6;  129.620000;  -33.711000;  -33.203000
 1;228.0;  126.550000;  -35.082000;  -22.207000
 1;230.4;  122.570000;  -35.748000;  -12.851000
 1;232.8;  120.310000;  -36.025000;   -5.334200
 1;235.2;  119.940000;  -36.069000;    1.638700
 1;237.6;  121.380000;  -35.851000;    8.652600
 1;240.0;  124.390000;  -35.334000;   16.780000
 1;242.4;  127.190000;  -34.286000;   26.647000
 1;244.8;  122.850000;  -32.413000;   37.635000
 1;247.2;  100.130000;  -29.490000;   47.562000
 1;249.6;   74.381000;  -26.030000;   52.995000
 1;252.0;   66.589000;  -22.399000;   55.667000
 1;254.4;   69.818000;  -18.754000;   59.631000
 1;256.8;   62.586000;  -14.784000;   65.900000
 1;259.2;   31.848000;  -10.096000;   71.070000
 1;261.6;    4.180900;   -5.330600;   71.570000
 1;264.0;   -1.425100;   -0.700420;   69.886000
 1;266.4;   -1.389900;    3.838700;   70.141000
 1;268.8;  -19.905000;    8.453200;   71.611000
 1;271.2;  -54.104000;   13.280000;   69.822000
 1;273.6;  -70.926000;   17.543000;   63.940000
 1;276.0;  -69.306000;   21.318000;   57.832000
 1;278.4;  -70.672000;   24.927000;   54.298000
 1;280.8;  -89.905000;   28.371000;   51.136000
 1;283.2; -116.830000;   31.605000;   44.228000
 1;285.6; -126.750000;   33.936000;   33.858000
 1;288.0; -124.930000;   35.375000;   22.910000
 1;290.4; -121.390000;   36.172000;   13.562000
 1;292.8; -119.150000;   36.523000;    5.910600
 1;295.2; -118.710000;   36.588000;   -1.063800
 1;297.6; -120.080000;   36.461000;   -7.974900
 1;300.0; -123.080000;   36.060000;  -15.821000
 1;302.4; -126.420000;   35.136000;  -25.377000
 1;304.8; -124.160000;   33.457000;  -36.283000
 1;307.2; -104.640000;   30.764000;  -46.612000
 1;309.6;  -77.894000;   27.463000;  -52.770000
 1;312.0;  -67.527000;   23.896000;  -55.731000
 1;314.4;  -70.897000;   20.320000;  -59.475000
 1;316.8;  -66.759000;   16.487000;  -65.778000
 1;319.2;  -37.888000;   11.864000;  -71.666000
 1;321.6;   -7.117000;    7.104500;  -72.869000
 1;324.0;    0.823530;    2.413400;  -71.221000
 1;326.4;   -0.909050;   -2.128700;  -71.351000
 1;328.8;   15.133000;   -6.804500;  -73.236000
 1;331.2;   51.245000;  -11.756000;  -72.192000
 1;333.6;   71.889000;  -16.182000;  -66.506000
 1;336.0;   70.438000;  -20.147000;  -60.055000
 1;338.4;   69.502000;  -23.853000;  -56.465000
 1;340.8;   87.818000;  -27.532000;  -53.804000
 1;343.2;  118.650000;  -31.043000;  -47.307000
 1;345.6;  131.290000;  -33.649000;  -36.682000
 1;348.0;  129.390000;  -35.350000;  -25.159000
 1;350.4;  125.210000;  -36.281000;  -15.336000
 1;352.8;  122.550000;  -36.745000;   -7.424700
 1;355.2;  121.890000;  -36.950000;   -0.339830
 1;357.6;  123.240000;  -36.914000;    6.481900
 2;  0.0;  118.040000;   -8.083800;   17.525000
 2;  2.4;  124.220000;   -7.443700;   28.796000
 2;  4.8;  126.070000;   -6.708500;   42.005000
 2;  7.2;  106.580000;   -5.868700;   54.833000
 2;  9.6;   72.646000;   -4.916900;   62.300000
 2; 12.0;   60.585000;   -3.804500;   65.039000
 2; 14.4;   69.401000;   -2.595400;   68.745000
 2; 16.8;   71.342000;   -1.436800;   76.282000
 2; 19.2;   39.391000;   -0.355020;   83.559000
 2; 21.6;    2.834700;    0.699470;   84.517000
 2; 24.0;   -1.494800;    1.899200;   81.826000
 2; 26.4;    7.835600;    3.127000;   81.951000
 2; 28.8;   -7.357800;    4.169900;   84.622000
 2; 31.2;  -50.833000;    5.115700;   83.187000
 2; 33.6;  -71.061000;    6.041800;   75.660000
 2; 36.0;  -62.604000;    7.039500;   68.043000
 2; 38.4;  -57.879000;    7.938300;   64.558000
 2; 40.8;  -81.500000;    8.576100;   61.665000
 2; 43.2; -118.340000;    8.992400;   53.047000
 2; 45.6; -127.870000;    9.275900;   39.618000
 2; 48.0; -122.200000;    9.506300;   25.909000
 2; 50.4; -116.220000;    9.643300;   14.627000
 2; 52.8; -113.070000;    9.638800;    5.930200
 2; 55.2; -112.700000;    9.500300;   -1.918500
 2; 57.6; -114.960000;    9.214200;   -9.581700
 2; 60.0; -120.070000;    8.753500;  -18.822000
 2; 62.4; -127.270000;    8.170600;  -30.494000
 2; 64.8; -130.040000;    7.519700;  -44.275000
 2; 67.2; -107.160000;    6.826700;  -57.765000
 2; 69.6;  -69.854000;    6.002200;  -64.862000
 2; 72.0;  -60.077000;    4.964500;  -67.011000
 2; 74.4;  -72.326000;    3.793500;  -70.883000
 2; 76.8;  -73.863000;    2.672900;  -79.176000
 2; 79.2;  -35.444000;    1.638600;  -86.520000
 2; 81.6;    1.968200;    0.582230;  -86.585000
 2; 84.0;    1.088200;   -0.656350;  -83.370000
 2; 86.4;   -9.999800;   -1.900900;  -83.998000
 2; 88.8;   10.408000;   -2.914300;  -87.003000
 2; 91.2;   57.617000;   -3.825400;  -84.771000
 2; 93.6;   73.684000;   -4.774300;  -76.296000
 2; 96.0;   61.607000;   -5.784700;  -68.515000
 2; 98.4;   58.391000;   -6.649100;  -65.565000
 2;100.8;   86.534000;   -7.249600;  -62.535000
 2;103.2;  123.840000;   -7.672300;  -52.793000
 2;105.6;  129.530000;   -8.029200;  -38.623000
 2;108.0;  122.460000;   -8.326100;  -24.695000
 2;110.4;  116.440000;   -8.496700;  -13.707000
 2;112.8;  113.510000;   -8.509800;   -5.226300
 2;115.2;  113.370000;   -8.374600;    2.617600
 2;117.6;  115.970000;   -8.099100;   10.424000
 2;120.0;  121.370000;   -7.657700;   19.928000
 2;122.4;  128.550000;   -7.092700;   32.124000
 2;124.8;  128.900000;   -6.465000;   46.167000
 2;127.2;  101.000000;   -5.801100;   58.916000
 2;129.6;   65.758000;   -4.960200;   64.992000
 2;132.0;   60.710000;   -3.908000;   66.878000
 2;134.4;   73.080000;   -2.744800;   71.299000
 2;136.8;   69.745000;   -1.681700;   79.634000
 2;139.2;   28.564000;   -0.655980;   86.002000
 2;141.6;   -3.810900;    0.439590;   85.211000
 2;144.0;   -0.305740;    1.708400;   82.124000
 2;146.4;    7.431000;    2.915300;   83.006000
 2;148.8;  -17.016000;    3.928700;   85.321000
 2;151.2;  -60.713000;    4.887200;   82.047000
 2;153.6;  -71.831000;    5.889400;   73.435000
 2;156.0;  -61.017000;    6.939100;   66.376000
 2;158.4;  -61.712000;    7.853500;   63.326000
 2;160.8;  -90.929000;    8.506300;   59.386000
 2;163.2; -122.160000;    9.009200;   49.266000
 2;165.6; -125.890000;    9.423700;   35.379000
 2;168.0; -119.520000;    9.725800;   22.230000
 2;170.4; -114.230000;    9.908000;   11.786000
 2;172.8; -111.650000;    9.964400;    3.452800
 2;175.2; -111.710000;    9.843400;   -4.288400
 2;177.6; -114.240000;    9.555500;  -12.179000
 2;180.0; -119.210000;    9.125400;  -21.626000
 2;182.4; -124.910000;    8.558500;  -33.579000
 2;184.8; -122.470000;    7.921100;  -46.827000
 2;187.2;  -95.144000;    7.167600;  -58.524000
 2;189.6;  -65.797000;    6.287500;  -64.065000
 2;192.0;  -61.457000;    5.196000;  -66.458000
 2;194.4;  -70.439000;    4.028400;  -71.127000
 2;196.8;  -63.890000;    2.928700;  -78.771000
 2;199.2;  -26.990000;    1.834200;  -84.282000
 2;201.6;    0.596650;    0.669600;  -83.715000
 2;204.0;   -0.887430;   -0.595490;  -81.367000
 2;206.4;   -4.485300;   -1.835600;  -82.205000
 2;208.8;   18.520000;   -2.914700;  -83.855000
 2;211.2;   56.968000;   -3.959900;  -80.516000
 2;213.6;   68.023000;   -5.003500;  -72.769000
 2;216.0;   60.661000;   -6.072200;  -66.112000
 2;218.4;   63.022000;   -7.012800;  -62.658000
 2;220.8;   88.758000;   -7.705100;  -58.402000
 2;223.2;  116.670000;   -8.239800;  -48.759000
 2;225.6;  121.770000;   -8.629700;  -35.722000
 2;228.0;  116.970000;   -8.920900;  -23.166000
 2;230.4;  112.290000;   -9.084100;  -12.818000
 2;232.8;  109.960000;   -9.105400;   -4.600600
 2;235.2;  109.930000;   -8.950800;    3.156400
 2;237.6;  112.180000;   -8.657700;   10.918000
 2;240.0;  116.480000;   -8.206200;   20.129000
 2;242.4;  121.280000;   -7.605100;   31.665000
 2;244.8;  119.020000;   -6.910100;   44.222000
 2;247.2;   96.008000;   -6.104300;   55.613000
 2;249.6;   68.063000;   -5.161100;   61.742000
 2;252.0;   61.166000;   -4.058800;   64.548000
 2;254.4;   67.653000;   -2.854600;   68.969000
 2;256.8;   62.545000;   -1.679500;   76.090000
 2;259.2;   30.513000;   -0.538730;   81.699000
 2;261.6;    2.449800;    0.612100;   81.827000
 2;264.0;    0.094872;    1.871200;   79.745000
 2;266.4;    3.189500;    3.133700;   80.159000
 2;268.8;  -15.983000;    4.221800;   81.659000
 2;271.2;  -51.513000;    5.240100;   79.066000
 2;273.6;  -65.913000;    6.238600;   72.060000
 2;276.0;  -60.840000;    7.273600;   65.395000
 2;278.4;  -61.695000;    8.218000;   61.692000
 2;280.8;  -83.712000;    8.941700;   57.812000
 2;283.2; -112.160000;    9.489800;   48.976000
 2;285.6; -120.050000;    9.885600;   36.727000
 2;288.0; -116.350000;   10.165000;   24.109000
 2;290.4; -111.790000;   10.318000;   13.530000
 2;292.8; -109.380000;   10.332000;    5.327400
 2;295.2; -109.150000;   10.188000;   -2.502700
 2;297.6; -111.170000;    9.874100;  -10.116000
 2;300.0; -115.370000;    9.399500;  -19.193000
 2;302.4; -120.440000;    8.756400;  -30.194000
 2;304.8; -120.110000;    8.026400;  -42.738000
 2;307.2; -100.100000;    7.180700;  -54.681000
 2;309.6;  -71.171000;    6.243000;  -61.491000
 2;312.0;  -61.242000;    5.112700;  -64.544000
 2;314.4;  -67.743000;    3.898400;  -68.661000
 2;316.8;  -66.143000;    2.752100;  -75.770000
 2;319.2;  -36.293000;    1.618400;  -82.154000
 2;321.6;   -4.891400;    0.497460;  -83.029000
 2;324.0;   -0.155470;   -0.720210;  -80.966000
 2;326.4;   -5.464700;   -1.952800;  -81.235000
 2;328.8;   10.575000;   -3.026700;  -83.264000
 2;331.2;   48.483000;   -4.013300;  -81.510000
 2;333.6;   66.689000;   -4.964300;  -74.672000
 2;336.0;   61.307000;   -5.974400;  -67.672000
 2;338.4;   59.425000;   -6.903000;  -64.025000
 2;340.8;   80.886000;   -7.605800;  -60.745000
 2;343.2;  113.320000;   -8.134200;  -52.413000
 2;345.6;  123.640000;   -8.503800;  -39.684000
 2;348.0;  119.650000;   -8.777200;  -26.470000
 2;350.4;  114.580000;   -8.938100;  -15.548000
 2;352.8;  111.760000;   -8.948900;   -6.912800
 2;355.2;  111.410000;   -8.826500;    0.937300
 2;357.6;  113.520000;   -8.537100;    8.609000
 3;  0.0;  118.210000;   -0.007005;   22.149000
 3;  2.4;  124.030000;    0.910070;   35.322000
 3;  4.8;  116.900000;    1.854800;   49.744000
 3;  7.2;   81.903000;    2.517200;   61.378000
 3;  9.6;   55.108000;    2.764000;   66.242000
 3; 12.0;   57.930000;    3.061300;   68.778000
 3; 14.4;   69.394000;    3.719600;   74.904000
 3; 16.8;   55.285000;    4.473500;   83.822000
 3; 19.2;   10.142000;    4.848400;   88.823000
 3; 21.6;  -10.544000;    4.869700;   87.084000
 3; 24.0;    0.152780;    5.047800;   85.142000
 3; 26.4;    2.249000;    5.514500;   87.609000
 3; 28.8;  -33.289000;    5.795300;   89.622000
 3; 31.2;  -72.727000;    5.582500;   84.598000
 3; 33.6;  -71.783000;    5.255000;   75.662000
 3; 36.0;  -58.335000;    5.271800;   69.944000
 3; 38.4;  -66.270000;    5.415900;   67.951000
 3; 40.8; -104.550000;    5.231900;   63.083000
 3; 43.2; -130.150000;    4.567600;   50.854000
 3; 45.6; -126.860000;    3.854400;   35.958000
 3; 48.0; -118.530000;    3.307700;   22.605000
 3; 50.4; -112.850000;    2.912600;   12.170000
 3; 52.8; -110.400000;    2.584400;    3.740300
 3; 55.2; -110.920000;    2.200900;   -4.341900
 3; 57.6; -114.280000;    1.706500;  -12.802000
 3; 60.0; -120.730000;    0.989980;  -23.519000
 3; 62.4; -127.740000;    0.032202;  -37.135000
 3; 64.8; -119.990000;   -0.944250;  -52.280000
 3; 67.2;  -79.694000;   -1.626100;  -64.123000
 3; 69.6;  -52.322000;   -1.829600;  -68.345000
 3; 72.0;  -58.652000;   -2.084300;  -70.474000
 3; 74.4;  -72.578000;   -2.739200;  -76.988000
 3; 76.8;  -55.627000;   -3.471800;  -86.563000
 3; 79.2;   -5.431300;   -3.763400;  -91.346000
 3; 81.6;   13.217000;   -3.674600;  -88.860000
 3; 84.0;   -1.503600;   -3.870600;  -86.805000
 3; 86.4;   -2.841400;   -4.363900;  -89.834000
 3; 88.8;   37.990000;   -4.604400;  -91.806000
 3; 91.2;   78.128000;   -4.278000;  -85.766000
 3; 93.6;   72.869000;   -3.947900;  -76.318000
 3; 96.0;   57.825000;   -3.977400;  -70.788000
 3; 98.4;   68.736000;   -4.132400;  -68.997000
 3;100.8;  110.470000;   -3.885200;  -63.630000
 3;103.2;  133.300000;   -3.173500;  -50.450000
 3;105.6;  127.660000;   -2.445300;  -35.136000
 3;108.0;  118.870000;   -1.929300;  -21.931000
 3;110.4;  113.190000;   -1.554800;  -11.598000
 3;112.8;  110.880000;   -1.266900;   -3.265500
 3;115.2;  111.610000;   -0.894590;    4.804200
 3;117.6;  115.260000;   -0.407290;   13.416000
 3;120.0;  121.990000;    0.294700;   24.445000
 3;122.4;  128.470000;    1.188300;   38.494000
 3;124.8;  117.230000;    2.092600;   53.531000
 3;127.2;   75.282000;    2.616900;   64.583000
 3;129.6;   51.855000;    2.769300;   68.183000
 3;132.0;   60.498000;    3.057100;   70.530000
 3;134.4;   72.248000;    3.733800;   77.587000
 3;136.8;   49.362000;    4.410000;   86.805000
 3;139.2;    0.890970;    4.607500;   90.398000
 3;141.6;  -12.420000;    4.539900;   87.437000
 3;144.0;    1.989500;    4.727800;   85.763000
 3;146.4;   -1.621200;    5.177000;   88.669000
 3;148.8;  -43.701000;    5.325200;   89.627000
 3;151.2;  -77.090000;    5.034000;   82.998000
 3;153.6;  -70.339000;    4.783800;   73.986000
 3;156.0;  -58.345000;    4.860300;   68.873000
 3;158.4;  -73.079000;    5.001800;   66.660000
 3;160.8; -112.050000;    4.765800;   60.427000
 3;163.2; -130.020000;    4.179600;   47.121000
 3;165.6; -124.470000;    3.582200;   32.426000
 3;168.0; -116.550000;    3.159500;   19.796000
 3;170.4; -111.460000;    2.856600;    9.791900
 3;172.8; -109.450000;    2.563900;    1.613900
 3;175.2; -110.260000;    2.247200;   -6.451700
 3;177.6; -113.770000;    1.784200;  -15.152000
 3;180.0; -119.800000;    1.137500;  -26.086000
 3;182.4; -124.200000;    0.308520;  -39.786000
 3;184.8; -110.580000;   -0.491680;  -53.923000
 3;187.2;  -73.021000;   -0.997650;  -63.992000
 3;189.6;  -53.380000;   -1.213100;  -67.655000
 3;192.0;  -60.298000;   -1.592500;  -70.528000
 3;194.4;  -67.633000;   -2.266100;  -77.428000
 3;196.8;  -44.592000;   -2.907200;  -85.601000
 3;199.2;   -2.802900;   -3.158200;  -88.729000
 3;201.6;    9.015100;   -3.191000;  -86.427000
 3;204.0;   -1.242200;   -3.450900;  -85.281000
 3;206.4;    5.017700;   -3.902000;  -87.750000
 3;208.8;   42.769000;   -4.093900;  -88.181000
 3;211.2;   72.144000;   -3.934800;  -82.007000
 3;213.6;   68.103000;   -3.797400;  -73.712000
 3;216.0;   59.508000;   -3.910900;  -68.702000
 3;218.4;   73.733000;   -4.074500;  -65.947000
 3;220.8;  107.830000;   -3.926300;  -59.620000
 3;223.2;  125.150000;   -3.438200;  -47.062000
 3;225.6;  121.580000;   -2.904600;  -33.084000
 3;228.0;  114.770000;   -2.502800;  -20.790000
 3;230.4;  110.110000;   -2.192500;  -10.882000
 3;232.8;  108.190000;   -1.893400;   -2.701600
 3;235.2;  108.910000;   -1.547700;    5.389500
 3;237.6;  112.070000;   -1.068600;   13.989000
 3;240.0;  117.320000;   -0.419240;   24.646000
 3;242.4;  120.800000;    0.428380;   37.799000
 3;244.8;  108.940000;    1.258800;   51.311000
 3;247.2;   75.430000;    1.849900;   61.464000
 3;249.6;   55.280000;    2.168400;   65.701000
 3;252.0;   59.015000;    2.569500;   68.741000
 3;254.4;   65.126000;    3.243100;   75.214000
 3;256.8;   45.965000;    3.932800;   82.955000
 3;259.2;    7.313700;    4.280400;   86.532000
 3;261.6;   -7.574000;    4.373000;   84.833000
 3;264.0;   -0.269460;    4.625100;   83.560000
 3;266.4;   -4.542100;    5.094800;   85.532000
 3;268.8;  -37.444000;    5.335300;   86.191000
 3;271.2;  -67.743000;    5.258400;   80.891000
 3;273.6;  -67.362000;    5.136300;   73.108000
 3;276.0;  -59.459000;    5.237100;   67.836000
 3;278.4;  -70.798000;    5.398000;   64.990000
 3;280.8; -102.510000;    5.302100;   59.322000
 3;283.2; -122.390000;    4.832700;   47.569000
 3;285.6; -120.720000;    4.300600;   33.907000
 3;288.0; -114.380000;    3.842000;   21.548000
 3;290.4; -109.670000;    3.504500;   11.489000
 3;292.8; -107.640000;    3.198700;    3.241400
 3;295.2; -108.130000;    2.837200;   -4.789800
 3;297.6; -111.060000;    2.353700;  -13.222000
 3;300.0; -116.190000;    1.680800;  -23.562000
 3;302.4; -120.490000;    0.810380;  -36.464000
 3;304.8; -111.550000;   -0.101850;  -50.129000
 3;307.2;  -79.477000;   -0.772110;  -60.945000
 3;309.6;  -56.186000;   -1.125700;  -65.754000
 3;312.0;  -57.986000;   -1.514100;  -68.686000
 3;314.4;  -65.957000;   -2.198900;  -74.751000
 3;316.8;  -50.764000;   -2.932300;  -82.880000
 3;319.2;  -11.181000;   -3.331400;  -87.328000
 3;321.6;    7.435700;   -3.429300;  -86.051000
 3;324.0;    0.173310;   -3.671200;  -84.564000
 3;326.4;    0.756460;   -4.146900;  -86.619000
 3;328.8;   32.463000;   -4.439300;  -88.075000
 3;331.2;   67.367000;   -4.336300;  -83.433000
 3;333.6;   68.908000;   -4.132000;  -75.372000
 3;336.0;   58.915000;   -4.162600;  -69.780000
 3;338.4;   67.134000;   -4.297000;  -67.271000
 3;340.8;  100.650000;   -4.127500;  -62.279000
 3;343.2;  124.730000;   -3.550200;  -50.743000
 3;345.6;  123.590000;   -2.860200;  -36.551000
 3;348.0;  116.560000;   -2.312000;  -23.617000
 3;350.4;  111.340000;   -1.916200;  -13.263000
 3;352.8;  109.010000;   -1.570800;   -4.849700
 3;355.2;  109.370000;   -1.194800;    3.231400
 3;357.6;  112.420000;   -0.710500;   11.678000
 4;  0.0;  121.300000;    2.753200;   25.911000
 4;  2.4;  127.920000;    3.197500;   40.068000
 4;  4.8;  117.410000;    3.506700;   54.766000
 4;  7.2;   77.301000;    3.586600;   65.324000
 4;  9.6;   54.862000;    3.637400;   68.819000
 4; 12.0;   63.432000;    3.809600;   71.510000
 4; 14.4;   75.584000;    4.055600;   78.951000
 4; 16.8;   53.942000;    4.137000;   88.115000
 4; 19.2;    5.473700;    4.033600;   91.514000
 4; 21.6;   -8.458100;    3.917800;   88.500000
 4; 24.0;    6.642900;    3.927600;   87.108000
 4; 26.4;    4.537200;    3.863000;   90.364000
 4; 28.8;  -38.383000;    3.559400;   91.386000
 4; 31.2;  -74.340000;    3.101600;   84.420000
 4; 33.6;  -67.215000;    2.789000;   75.225000
 4; 36.0;  -53.299000;    2.563900;   70.381000
 4; 38.4;  -67.835000;    2.204300;   68.480000
 4; 40.8; -110.110000;    1.611000;   62.126000
 4; 43.2; -130.840000;    0.902610;   47.828000
 4; 45.6; -124.720000;    0.353700;   32.534000
 4; 48.0; -116.490000;   -0.047706;   19.594000
 4; 50.4; -111.460000;   -0.374810;    9.539100
 4; 52.8; -109.800000;   -0.697430;    1.268800
 4; 55.2; -111.270000;   -1.067100;   -6.916900
 4; 57.6; -115.850000;   -1.486100;  -15.922000
 4; 60.0; -123.820000;   -1.958000;  -27.540000
 4; 62.4; -131.620000;   -2.408400;  -42.281000
 4; 64.8; -119.080000;   -2.648800;  -57.680000
 4; 67.2;  -73.557000;   -2.670900;  -68.053000
 4; 69.6;  -52.322000;   -2.692200;  -70.745000
 4; 72.0;  -64.925000;   -2.837400;  -73.204000
 4; 74.4;  -78.674000;   -3.014800;  -81.232000
 4; 76.8;  -52.104000;   -2.990500;  -90.806000
 4; 79.2;    0.282540;   -2.760100;  -93.553000
 4; 81.6;    9.619200;   -2.591000;  -89.842000
 4; 84.0;   -9.099200;   -2.568900;  -88.743000
 4; 86.4;   -3.914200;   -2.437100;  -92.582000
 4; 88.8;   45.269000;   -2.037200;  -93.144000
 4; 91.2;   78.507000;   -1.546500;  -85.065000
 4; 93.6;   66.737000;   -1.256800;  -75.529000
 4; 96.0;   52.481000;   -1.030900;  -71.195000
 4; 98.4;   71.380000;   -0.627980;  -69.437000
 4;100.8;  116.690000;   -0.017834;  -62.129000
 4;103.2;  133.010000;    0.614340;  -47.079000
 4;105.6;  125.040000;    1.099800;  -31.544000
 4;108.0;  116.570000;    1.440300;  -18.785000
 4;110.4;  111.780000;    1.739800;   -9.086100
 4;112.8;  110.310000;    2.032200;   -0.905590
 4;115.2;  112.050000;    2.358100;    7.447500
 4;117.6;  116.890000;    2.748300;   16.476000
 4;120.0;  125.050000;    3.194900;   28.402000
 4;122.4;  132.040000;    3.564600;   43.437000
 4;124.8;  116.190000;    3.761400;   58.482000
 4;127.2;   70.413000;    3.747200;   68.102000
 4;129.6;   52.651000;    3.759100;   70.482000
 4;132.0;   66.346000;    3.901400;   73.250000
 4;134.4;   77.342000;    4.041800;   81.551000
 4;136.8;   46.167000;    3.964900;   90.583000
 4;139.2;   -2.967100;    3.713600;   92.372000
 4;141.6;   -8.670700;    3.560500;   88.505000
 4;144.0;    8.574900;    3.521300;   87.667000
 4;146.4;   -0.627920;    3.378300;   91.188000
 4;148.8;  -48.818000;    2.984000;   90.884000
 4;151.2;  -76.784000;    2.525800;   82.548000
 4;153.6;  -65.078000;    2.245000;   73.539000
 4;156.0;  -53.896000;    2.023600;   69.373000
 4;158.4;  -74.871000;    1.621400;   67.057000
 4;160.8; -116.310000;    1.032900;   59.208000
 4;163.2; -129.760000;    0.456760;   44.417000
 4;165.6; -122.460000;    0.036310;   29.482000
 4;168.0; -114.750000;   -0.286310;   17.208000
 4;170.4; -110.270000;   -0.539110;    7.574600
 4;172.8; -109.000000;   -0.804970;   -0.504640
 4;175.2; -110.700000;   -1.108500;   -8.754300
 4;177.6; -115.300000;   -1.452100;  -17.928000
 4;180.0; -122.570000;   -1.847900;  -29.656000
 4;182.4; -127.390000;   -2.175400;  -44.256000
 4;184.8; -109.820000;   -2.332200;  -58.439000
 4;187.2;  -69.201000;   -2.320600;  -67.375000
 4;189.6;  -54.047000;   -2.339300;  -70.030000
 4;192.0;  -65.273000;   -2.458800;  -73.303000
 4;194.4;  -72.038000;   -2.582400;  -81.218000
 4;196.8;  -42.052000;   -2.536800;  -89.305000
 4;199.2;    0.535070;   -2.354200;  -90.924000
 4;201.6;    5.952800;   -2.268300;  -87.859000
 4;204.0;   -6.853400;   -2.271300;  -87.417000
 4;206.4;    4.574600;   -2.170500;  -90.380000
 4;208.8;   47.482000;   -1.881100;  -89.676000
 4;211.2;   72.586000;   -1.550300;  -81.963000
 4;213.6;   64.028000;   -1.340400;  -73.621000
 4;216.0;   56.040000;   -1.163800;  -69.385000
 4;218.4;   76.015000;   -0.839700;  -66.482000
 4;220.8;  112.680000;   -0.359120;  -58.671000
 4;223.2;  126.220000;    0.164390;  -44.629000
 4;225.6;  120.720000;    0.554970;  -30.278000
 4;228.0;  113.870000;    0.882440;  -18.226000
 4;230.4;  109.720000;    1.143100;   -8.609000
 4;232.8;  108.490000;    1.421300;   -0.515730
 4;235.2;  110.050000;    1.758100;    7.783400
 4;237.6;  114.290000;    2.098200;   16.899000
 4;240.0;  120.750000;    2.514600;   28.469000
 4;242.4;  124.470000;    2.894000;   42.485000
 4;244.8;  108.540000;    3.152400;   56.148000
 4;247.2;   71.391000;    3.234100;   65.216000
 4;249.6;   55.441000;    3.306200;   68.360000
 4;252.0;   63.705000;    3.469000;   71.692000
 4;254.4;   69.542000;    3.630700;   79.134000
 4;256.8;   44.302000;    3.690400;   86.864000
 4;259.2;    3.552300;    3.588500;   89.078000
 4;261.6;   -5.576100;    3.541800;   86.506000
 4;264.0;    4.789400;    3.571700;   85.759000
 4;266.4;   -3.780100;    3.520900;   88.271000
 4;268.8;  -42.191000;    3.301000;   87.961000
 4;271.2;  -69.391000;    2.993300;   81.154000
 4;273.6;  -64.052000;    2.771900;   72.959000
 4;276.0;  -56.003000;    2.589300;   68.451000
 4;278.4;  -72.187000;    2.284600;   65.636000
 4;280.8; -107.550000;    1.792100;   58.512000
 4;283.2; -124.160000;    1.267800;   45.304000
 4;285.6; -120.220000;    0.839130;   31.085000
 4;288.0; -113.630000;    0.503440;   18.904000
 4;290.4; -109.370000;    0.194630;    9.163300
 4;292.8; -107.970000;   -0.094008;    0.956150
 4;295.2; -109.310000;   -0.439410;   -7.260200
 4;297.6; -113.290000;   -0.827750;  -16.203000
 4;300.0; -119.700000;   -1.281800;  -27.426000
 4;302.4; -124.490000;   -1.710800;  -41.223000
 4;304.8; -112.010000;   -2.039800;  -55.183000
 4;307.2;  -75.167000;   -2.166800;  -65.055000
 4;309.6;  -55.737000;   -2.268700;  -68.617000
 4;312.0;  -62.793000;   -2.455800;  -71.724000
 4;314.4;  -71.155000;   -2.692900;  -78.773000
 4;316.8;  -49.291000;   -2.786200;  -87.100000
 4;319.2;   -6.490900;   -2.719400;  -90.125000
 4;321.6;    6.025000;   -2.656300;  -87.728000
 4;324.0;   -5.305200;   -2.690300;  -86.708000
 4;326.4;   -0.913820;   -2.680200;  -89.467000
 4;328.8;   37.931000;   -2.444600;  -90.002000
 4;331.2;   69.961000;   -2.091300;  -83.614000
 4;333.6;   65.665000;   -1.812000;  -74.977000
 4;336.0;   55.145000;   -1.595100;  -70.156000
 4;338.4;   68.794000;   -1.259400;  -67.765000
 4;340.8;  106.610000;   -0.697430;  -61.222000
 4;343.2;  126.410000;   -0.057041;  -47.862000
 4;345.6;  122.370000;    0.460120;  -33.322000
 4;348.0;  115.060000;    0.869370;  -20.624000
 4;350.4;  110.370000;    1.203600;  -10.613000
 4;352.8;  108.790000;    1.526900;   -2.463200
 4;355.2;  110.040000;    1.885400;    5.740200
 4;357.6;  114.210000;    2.293900;   14.613000
 5;  0.0;  125.510000;    5.019800;   30.932000
 5;  2.4;  127.340000;    5.647500;   46.409000
 5;  4.8;   98.377000;    6.011900;   60.394000
 5;  7.2;   57.499000;    5.913700;   67.696000
 5;  9.6;   52.579000;    5.709100;   69.611000
 5; 12.0;   69.051000;    5.752400;   74.108000
 5; 14.4;   69.472000;    5.938000;   83.918000
 5; 16.8;   24.789000;    5.842400;   91.750000
 5; 19.2;  -14.198000;    5.300900;   91.393000
 5; 21.6;   -7.077400;    4.805800;   87.813000
 5; 24.0;    8.205100;    4.600800;   89.018000
 5; 26.4;  -16.391000;    4.361100;   93.056000
 5; 28.8;  -68.646000;    3.683000;   90.792000
 5; 31.2;  -80.757000;    2.811800;   81.136000
 5; 33.6;  -62.815000;    2.223000;   73.270000
 5; 36.0;  -57.187000;    1.856300;   70.886000
 5; 38.4;  -91.743000;    1.319000;   68.335000
 5; 40.8; -131.680000;    0.405230;   58.360000
 5; 43.2; -133.270000;   -0.635440;   42.140000
 5; 45.6; -123.070000;   -1.412100;   27.420000
 5; 48.0; -115.260000;   -1.989400;   15.760000
 5; 50.4; -111.240000;   -2.403100;    6.618600
 5; 52.8; -110.560000;   -2.765700;   -1.316500
 5; 55.2; -113.160000;   -3.161900;   -9.744700
 5; 57.6; -119.080000;   -3.651800;  -19.574000
 5; 60.0; -128.080000;   -4.273100;  -32.749000
 5; 62.4; -130.270000;   -4.909800;  -48.929000
 5; 64.8;  -96.353000;   -5.223100;  -63.278000
 5; 67.2;  -53.142000;   -5.036800;  -69.935000
 5; 69.6;  -51.573000;   -4.765300;  -71.202000
 5; 72.0;  -71.256000;   -4.816500;  -75.936000
 5; 74.4;  -70.506000;   -4.993400;  -86.221000
 5; 76.8;  -19.924000;   -4.801900;  -93.996000
 5; 79.2;   18.085000;   -4.154000;  -92.779000
 5; 81.6;    5.955000;   -3.626000;  -88.994000
 5; 84.0;  -10.156000;   -3.420300;  -90.846000
 5; 86.4;   20.501000;   -3.129000;  -95.103000
 5; 88.8;   75.394000;   -2.384800;  -91.981000
 5; 91.2;   81.956000;   -1.457700;  -81.445000
 5; 93.6;   61.462000;   -0.874800;  -73.736000
 5; 96.0;   57.820000;   -0.515950;  -71.859000
 5; 98.4;   97.152000;    0.053860;  -69.026000
 5;100.8;  135.800000;    1.006800;  -58.069000
 5;103.2;  133.870000;    2.027300;  -41.323000
 5;105.6;  123.080000;    2.763300;  -26.705000
 5;108.0;  115.370000;    3.273300;  -15.222000
 5;110.4;  111.540000;    3.651600;   -6.223600
 5;112.8;  111.110000;    3.985400;    1.688600
 5;115.2;  113.980000;    4.374900;   10.245000
 5;117.6;  120.150000;    4.842400;   20.304000
 5;120.0;  129.130000;    5.444000;   33.848000
 5;122.4;  128.800000;    6.023100;   50.128000
 5;124.8;   91.006000;    6.254200;   63.833000
 5;127.2;   51.193000;    6.004800;   69.619000
 5;129.6;   53.123000;    5.718400;   70.873000
 5;132.0;   72.259000;    5.726600;   76.144000
 5;134.4;   66.320000;    5.813600;   86.483000
 5;136.8;   14.426000;    5.552600;   93.289000
 5;139.2;  -18.157000;    4.918200;   91.350000
 5;141.6;   -4.591600;    4.418200;   87.826000
 5;144.0;    7.614200;    4.201300;   89.839000
 5;146.4;  -26.714000;    3.832300;   93.293000
 5;148.8;  -76.351000;    3.073200;   89.275000
 5;151.2;  -78.882000;    2.199100;   78.892000
 5;153.6;  -60.418000;    1.666200;   71.862000
 5;156.0;  -61.007000;    1.293200;   69.890000
 5;158.4; -100.250000;    0.687150;   66.207000
 5;160.8; -133.020000;   -0.202300;   54.887000
 5;163.2; -130.370000;   -1.124600;   38.709000
 5;165.6; -120.600000;   -1.788500;   24.776000
 5;168.0; -113.520000;   -2.239600;   13.724000
 5;170.4; -109.970000;   -2.583100;    4.813400
 5;172.8; -109.640000;   -2.879600;   -2.974600
 5;175.2; -112.420000;   -3.229500;  -11.493000
 5;177.6; -118.210000;   -3.630500;  -21.559000
 5;180.0; -125.900000;   -4.139100;  -34.668000
 5;182.4; -123.690000;   -4.622300;  -50.202000
 5;184.8;  -88.758000;   -4.768700;  -63.192000
 5;187.2;  -53.288000;   -4.578600;  -68.975000
 5;189.6;  -53.962000;   -4.341900;  -70.765000
 5;192.0;  -69.389000;   -4.335100;  -76.050000
 5;194.4;  -61.859000;   -4.397900;  -85.538000
 5;196.8;  -15.587000;   -4.146200;  -91.821000
 5;199.2;   13.955000;   -3.559200;  -90.437000
 5;201.6;    3.915200;   -3.130900;  -87.579000
 5;204.0;   -5.028100;   -2.881500;  -89.372000
 5;206.4;   26.017000;   -2.536800;  -92.367000
 5;208.8;   71.112000;   -1.853500;  -88.658000
 5;211.2;   76.382000;   -1.107400;  -79.193000
 5;213.6;   61.327000;   -0.583170;  -72.288000
 5;216.0;   62.475000;   -0.213120;  -69.829000
 5;218.4;   97.588000;    0.342130;  -65.909000
 5;220.8;  128.600000;    1.135600;  -55.139000
 5;223.2;  128.470000;    1.981400;  -39.724000
 5;225.6;  119.860000;    2.628100;  -25.974000
 5;228.0;  113.250000;    3.070200;  -14.969000
 5;230.4;  109.810000;    3.429800;   -5.990100
 5;232.8;  109.370000;    3.728900;    1.877000
 5;235.2;  111.900000;    4.071700;   10.388000
 5;237.6;  117.160000;    4.474200;   20.289000
 5;240.0;  123.900000;    4.942800;   33.032000
 5;242.4;  121.550000;    5.404000;   48.170000
 5;244.8;   90.729000;    5.613500;   60.832000
 5;247.2;   56.447000;    5.488800;   67.143000
 5;249.6;   54.255000;    5.299100;   69.338000
 5;252.0;   67.280000;    5.319200;   74.313000
 5;254.4;   61.368000;    5.387900;   83.361000
 5;256.8;   19.765000;    5.205300;   89.723000
 5;259.2;  -11.029000;    4.686300;   89.025000
 5;261.6;   -4.712200;    4.246400;   86.273000
 5;264.0;    3.773400;    4.013100;   87.619000
 5;266.4;  -22.848000;    3.700900;   90.431000
 5;268.8;  -65.991000;    3.100100;   87.392000
 5;271.2;  -74.952000;    2.376800;   78.585000
 5;273.6;  -61.790000;    1.874600;   71.668000
 5;276.0;  -61.361000;    1.527300;   68.932000
 5;278.4;  -93.031000;    1.039300;   65.323000
 5;280.8; -125.190000;    0.276030;   55.342000
 5;283.2; -127.660000;   -0.592880;   40.343000
 5;285.6; -119.770000;   -1.258700;   26.662000
 5;288.0; -113.110000;   -1.755700;   15.423000
 5;290.4; -109.540000;   -2.158600;    6.337400
 5;292.8; -108.950000;   -2.478900;   -1.467700
 5;295.2; -111.240000;   -2.856500;  -10.048000
 5;297.6; -116.290000;   -3.297400;  -19.649000
 5;300.0; -123.220000;   -3.835900;  -32.197000
 5;302.4; -122.640000;   -4.365000;  -47.364000
 5;304.8;  -93.974000;   -4.653300;  -60.548000
 5;307.2;  -57.957000;   -4.606600;  -67.407000
 5;309.6;  -53.144000;   -4.425500;  -69.682000
 5;312.0;  -66.634000;   -4.452800;  -74.354000
 5;314.4;  -64.512000;   -4.587600;  -83.296000
 5;316.8;  -24.201000;   -4.458700;  -90.396000
 5;319.2;   10.593000;   -3.986700;  -90.302000
 5;321.6;    5.865900;   -3.544600;  -87.423000
 5;324.0;   -5.553400;   -3.328100;  -88.565000
 5;326.4;   18.032000;   -3.094300;  -91.967000
 5;328.8;   64.479000;   -2.504700;  -89.735000
 5;331.2;   77.433000;   -1.720600;  -80.830000
 5;333.6;   63.120000;   -1.157500;  -73.287000
 5;336.0;   59.195000;   -0.792270;  -70.446000
 5;338.4;   89.731000;   -0.273620;  -67.461000
 5;340.8;  126.110000;    0.542270;  -57.943000
 5;343.2;  130.090000;    1.484400;  -42.698000
 5;345.6;  121.560000;    2.232300;  -28.465000
 5;348.0;  114.390000;    2.779000;  -16.954000
 5;350.4;  110.520000;    3.194900;   -7.790100
 5;352.8;  109.790000;    3.557100;    0.140570
 5;355.2;  112.150000;    3.963800;    8.550200
 5;357.6;  117.500000;    4.441000;   18.179000
 6;  0.0;  131.390000;    7.324800;   34.655000
 6;  2.4;  132.280000;    7.491700;   50.631000
 6;  4.8;   96.507000;    7.313600;   63.615000
 6;  7.2;   56.574000;    6.888700;   68.905000
 6;  9.6;   58.203000;    6.554800;   70.176000
 6; 12.0;   77.764000;    6.331500;   75.779000
 6; 14.4;   74.216000;    5.995500;   86.161000
 6; 16.8;   20.465000;    5.267300;   92.811000
 6; 19.2;  -13.335000;    4.484700;   90.517000
 6; 21.6;    0.352910;    3.899500;   87.054000
 6; 24.0;   14.909000;    3.345400;   89.490000
 6; 26.4;  -34.360000;    2.124800;   92.188000
 6; 28.8;  -73.356000;    1.490700;   88.614000
 6; 31.2;  -76.706000;    0.556460;   78.055000
 6; 33.6;  -56.732000;   -0.101480;   71.429000
 6; 36.0;  -54.905000;   -0.790030;   69.994000
 6; 38.4;  -97.419000;   -1.762400;   66.371000
 6; 40.8; -135.160000;   -2.812000;   54.548000
 6; 43.2; -132.760000;   -3.740700;   37.737000
 6; 45.6; -122.470000;   -4.351200;   23.513000
 6; 48.0; -115.580000;   -4.801500;   12.619000
 6; 50.4; -112.490000;   -5.136500;    4.093200
 6; 52.8; -112.720000;   -5.443400;   -3.642000
 6; 55.2; -116.400000;   -5.792900;  -12.187000
 6; 57.6; -123.630000;   -6.137200;  -22.473000
 6; 60.0; -134.290000;   -6.463200;  -36.506000
 6; 62.4; -135.400000;   -6.566200;  -53.082000
 6; 64.8;  -94.005000;   -6.300400;  -66.298000
 6; 67.2;  -52.642000;   -5.826100;  -70.849000
 6; 69.6;  -57.844000;   -5.458000;  -71.551000
 6; 72.0;  -80.199000;   -5.192800;  -77.393000
 6; 74.4;  -74.707000;   -4.761200;  -88.391000
 6; 76.8;  -16.850000;   -3.993500;  -94.735000
 6; 79.2;   15.816000;   -3.183200;  -91.684000
 6; 81.6;   -2.253100;   -2.593900;  -88.201000
 6; 84.0;  -17.022000;   -2.042800;  -91.276000
 6; 86.4;   22.999000;   -1.173500;  -95.032000
 6; 88.8;   78.120000;   -0.100360;  -89.811000
 6; 91.2;   77.462000;    0.786850;  -78.634000
 6; 93.6;   55.150000;    1.445500;  -71.936000
 6; 96.0;   55.993000;    2.146800;  -70.881000
 6; 98.4;  101.780000;    3.119900;  -67.011000
 6;100.8;  138.250000;    4.199400;  -54.194000
 6;103.2;  133.070000;    5.069100;  -36.958000
 6;105.6;  122.560000;    5.648200;  -22.979000
 6;108.0;  115.750000;    6.054800;  -12.232000
 6;110.4;  112.870000;    6.382300;   -3.806100
 6;112.8;  113.340000;    6.663500;    3.863300
 6;115.2;  117.270000;    6.976400;   12.580000
 6;117.6;  124.740000;    7.281100;   23.117000
 6;120.0;  135.260000;    7.548500;   37.329000
 6;122.4;  133.750000;    7.569400;   53.975000
 6;124.8;   89.645000;    7.243800;   66.469000
 6;127.2;   51.992000;    6.759800;   70.382000
 6;129.6;   59.787000;    6.405100;   71.304000
 6;132.0;   81.008000;    6.141100;   77.647000
 6;134.4;   70.064000;    5.666100;   88.469000
 6;136.8;   11.745000;    4.873000;   93.820000
 6;139.2;  -15.463000;    4.040300;   90.234000
 6;141.6;    3.017600;    3.445900;   87.047000
 6;144.0;   13.643000;    2.830100;   90.069000
 6;146.4;  -28.353000;    1.923100;   92.934000
 6;148.8;  -77.652000;    0.873110;   87.129000
 6;151.2;  -74.339000;   -0.031276;   76.215000
 6;153.6;  -54.538000;   -0.669420;   70.215000
 6;156.0;  -59.343000;   -1.375900;   68.937000
 6;158.4; -104.510000;   -2.351600;   64.186000
 6;160.8; -135.040000;   -3.340800;   51.268000
 6;163.2; -129.720000;   -4.139500;   34.704000
 6;165.6; -120.000000;   -4.675700;   21.245000
 6;168.0; -113.710000;   -5.046500;   10.886000
 6;170.4; -111.080000;   -5.338100;    2.510400
 6;172.8; -111.640000;   -5.623800;   -5.197800
 6;175.2; -115.450000;   -5.885900;  -13.825000
 6;177.6; -122.580000;   -6.186500;  -24.390000
 6;180.0; -131.660000;   -6.429900;  -38.368000
 6;182.4; -127.460000;   -6.447900;  -54.162000
 6;184.8;  -85.799000;   -6.122300;  -65.903000
 6;187.2;  -52.849000;   -5.650600;  -69.828000
 6;189.6;  -59.620000;   -5.295500;  -71.216000
 6;192.0;  -77.165000;   -4.981900;  -77.563000
 6;194.4;  -63.911000;   -4.491200;  -87.571000
 6;196.8;  -12.000000;   -3.738800;  -92.341000
 6;199.2;   11.984000;   -2.934900;  -89.373000
 6;201.6;   -3.335500;   -2.343000;  -86.863000
 6;204.0;  -10.063000;   -1.731000;  -89.736000
 6;206.4;   29.529000;   -0.867700;  -92.057000
 6;208.8;   73.932000;    0.133020;  -86.428000
 6;211.2;   72.408000;    1.003100;  -76.336000
 6;213.6;   55.850000;    1.666200;  -70.497000
 6;216.0;   61.596000;    2.366700;  -68.757000
 6;218.4;  102.780000;    3.295000;  -63.740000
 6;220.8;  131.480000;    4.230400;  -51.343000
 6;223.2;  128.210000;    5.026500;  -35.466000
 6;225.6;  119.500000;    5.560500;  -22.275000
 6;228.0;  113.570000;    5.959600;  -11.926000
 6;230.4;  110.980000;    6.256100;   -3.567400
 6;232.8;  111.430000;    6.525000;    4.127500
 6;235.2;  114.960000;    6.797900;   12.793000
 6;237.6;  121.470000;    7.070500;   23.111000
 6;240.0;  129.520000;    7.301600;   36.548000
 6;242.4;  125.890000;    7.342000;   51.884000
 6;244.8;   89.208000;    7.094000;   63.610000
 6;247.2;   55.994000;    6.655300;   68.189000
 6;249.6;   59.242000;    6.287800;   69.948000
 6;252.0;   74.637000;    6.002900;   75.766000
 6;254.4;   64.613000;    5.581000;   85.279000
 6;256.8;   17.053000;    4.906200;   90.454000
 6;259.2;  -10.032000;    4.147500;   88.232000
 6;261.6;    1.417700;    3.565400;   85.615000
 6;264.0;    9.286000;    2.997800;   87.873000
 6;266.4;  -24.218000;    2.217700;   90.334000
 6;268.8;  -68.794000;    1.249500;   85.688000
 6;271.2;  -72.202000;    0.384320;   76.065000
 6;273.6;  -56.886000;   -0.288920;   69.918000
 6;276.0;  -59.563000;   -0.977110;   67.921000
 6;278.4;  -97.025000;   -1.874000;   63.511000
 6;280.8; -128.500000;   -2.861300;   51.931000
 6;283.2; -127.890000;   -3.690300;   36.419000
 6;285.6; -119.570000;   -4.288800;   23.051000
 6;288.0; -113.470000;   -4.722700;   12.436000
 6;290.4; -110.660000;   -5.043900;    3.918700
 6;292.8; -110.860000;   -5.339200;   -3.737400
 6;295.2; -114.160000;   -5.638300;  -12.364000
 6;297.6; -120.390000;   -5.949400;  -22.346000
 6;300.0; -128.710000;   -6.218200;  -35.625000
 6;302.4; -127.440000;   -6.313800;  -51.119000
 6;304.8;  -93.984000;   -6.107700;  -63.321000
 6;307.2;  -57.196000;   -5.671900;  -68.679000
 6;309.6;  -57.909000;   -5.319400;  -70.329000
 6;312.0;  -74.165000;   -5.087500;  -75.741000
 6;314.4;  -68.350000;   -4.701800;  -85.492000
 6;316.8;  -20.829000;   -4.077500;  -91.462000
 6;319.2;   10.238000;   -3.349000;  -89.665000
 6;321.6;   -0.582470;   -2.750400;  -86.765000
 6;324.0;  -11.483000;   -2.225800;  -89.019000
 6;326.4;   20.007000;   -1.482300;  -92.154000
 6;328.8;   68.754000;   -0.506250;  -88.012000
 6;331.2;   74.777000;    0.400380;  -78.126000
 6;333.6;   57.925000;    1.067700;  -71.483000
 6;336.0;   57.630000;    1.719200;  -69.540000
 6;338.4;   95.441000;    2.604600;  -65.680000
 6;340.8;  130.510000;    3.600100;  -54.337000
 6;343.2;  130.270000;    4.506300;  -38.318000
 6;345.6;  121.280000;    5.152700;  -24.516000
 6;348.0;  114.820000;    5.617200;  -13.861000
 6;350.4;  111.770000;    5.975700;   -5.136100
 6;352.8;  111.930000;    6.315100;    2.496800
 6;355.2;  115.260000;    6.629500;   10.962000
 6;357.6;  121.940000;    6.987200;   21.152000
 7;  0.0;  136.890000;   11.818000;   39.877000
 7;  2.4;  116.490000;   11.725000;   55.650000
 7;  4.8;   66.153000;   11.020000;   64.715000
 7;  7.2;   48.978000;    9.957700;   66.371000
 7;  9.6;   66.398000;    9.060000;   68.779000
 7; 12.0;   80.008000;    8.393900;   77.804000
 7; 14.4;   41.719000;    7.543200;   88.197000
 7; 16.8;  -14.124000;    6.156400;   90.133000
 7; 19.2;  -17.168000;    4.581800;   85.407000
 7; 21.6;    5.926000;    3.432800;   84.729000
 7; 24.0;   -2.742800;    2.368600;   89.871000
 7; 26.4;  -63.247000;    0.930610;   90.849000
 7; 28.8;  -93.660000;   -0.753440;   82.215000
 7; 31.2;  -74.458000;   -2.235500;   72.059000
 7; 33.6;  -57.817000;   -3.315000;   68.852000
 7; 36.0;  -81.631000;   -4.401600;   68.588000
 7; 38.4; -135.260000;   -5.819400;   61.511000
 7; 40.8; -145.610000;   -7.286500;   46.459000
 7; 43.2; -133.440000;   -8.474000;   30.425000
 7; 45.6; -123.750000;   -9.233500;   18.344000
 7; 48.0; -118.150000;   -9.702100;    9.144100
 7; 50.4; -116.180000;  -10.009000;    1.479000
 7; 52.8; -117.410000;  -10.231000;   -5.909500
 7; 55.2; -122.280000;  -10.446000;  -14.840000
 7; 57.6; -130.920000;  -10.670000;  -26.289000
 7; 60.0; -139.470000;  -10.853000;  -41.903000
 7; 62.4; -116.020000;  -10.702000;  -58.099000
 7; 64.8;  -61.556000;   -9.921300;  -66.869000
 7; 67.2;  -47.043000;   -8.757800;  -67.828000
 7; 69.6;  -67.681000;   -7.873900;  -70.208000
 7; 72.0;  -81.836000;   -7.276100;  -79.888000
 7; 74.4;  -37.532000;   -6.413500;  -90.446000
 7; 76.8;   19.356000;   -5.005800;  -91.635000
 7; 79.2;   16.892000;   -3.481900;  -86.404000
 7; 81.6;   -8.336100;   -2.351600;  -86.233000
 7; 84.0;    4.883600;   -1.291100;  -91.857000
 7; 86.4;   70.191000;    0.201730;  -92.207000
 7; 88.8;   95.847000;    1.932500;  -82.577000
 7; 91.2;   73.299000;    3.410400;  -72.432000
 7; 93.6;   57.333000;    4.458500;  -69.728000
 7; 96.0;   86.121000;    5.595200;  -69.395000
 7; 98.4;  139.970000;    7.048100;  -61.454000
 7;100.8;  146.070000;    8.517100;  -45.763000
 7;103.2;  132.960000;    9.685100;  -29.645000
 7;105.6;  123.500000;   10.415000;  -17.938000
 7;108.0;  118.090000;   10.873000;   -8.849200
 7;110.4;  116.330000;   11.158000;   -1.254400
 7;112.8;  117.810000;   11.359000;    6.085700
 7;115.2;  122.980000;   11.551000;   15.182000
 7;117.6;  131.790000;   11.758000;   26.935000
 7;120.0;  139.380000;   11.910000;   42.698000
 7;122.4;  111.870000;   11.695000;   58.526000
 7;124.8;   58.931000;   10.843000;   66.575000
 7;127.2;   48.285000;    9.686200;   67.324000
 7;129.6;   69.147000;    8.811000;   70.155000
 7;132.0;   79.821000;    8.168700;   80.045000
 7;134.4;   31.766000;    7.218400;   89.931000
 7;136.8;  -20.658000;    5.768100;   90.279000
 7;139.2;  -15.353000;    4.221800;   85.057000
 7;141.6;    7.550800;    3.100100;   85.139000
 7;144.0;   -9.626300;    2.017600;   90.297000
 7;146.4;  -72.246000;    0.516880;   89.736000
 7;148.8;  -92.709000;   -1.143300;   80.079000
 7;151.2;  -71.309000;   -2.555500;   70.573000
 7;153.6;  -58.441000;   -3.614500;   68.021000
 7;156.0;  -88.497000;   -4.750000;   67.175000
 7;158.4; -137.830000;   -6.167400;   58.837000
 7;160.8; -142.690000;   -7.541200;   43.514000
 7;163.2; -130.700000;   -8.639400;   28.049000
 7;165.6; -121.750000;   -9.316800;   16.527000
 7;168.0; -116.700000;   -9.730100;    7.647800
 7;170.4; -115.080000;   -9.993400;    0.130590
 7;172.8; -116.540000;  -10.176000;   -7.301200
 7;175.2; -121.470000;  -10.341000;  -16.342000
 7;177.6; -129.570000;  -10.505000;  -27.963000
 7;180.0; -135.120000;  -10.583000;  -43.203000
 7;182.4; -107.680000;  -10.271000;  -58.259000
 7;184.8;  -59.688000;   -9.420200;  -65.939000
 7;187.2;  -49.566000;   -8.305600;  -67.094000
 7;189.6;  -67.637000;   -7.409400;  -70.219000
 7;192.0;  -74.892000;   -6.730200;  -79.513000
 7;194.4;  -30.423000;   -5.779100;  -88.618000
 7;196.8;   16.705000;   -4.374300;  -89.115000
 7;199.2;   13.159000;   -2.931900;  -84.755000
 7;201.6;   -5.827200;   -1.821700;  -85.062000
 7;204.0;   11.829000;   -0.717970;  -89.723000
 7;206.4;   69.057000;    0.732710;  -89.025000
 7;208.8;   89.294000;    2.305500;  -80.042000
 7;211.2;   71.232000;    3.708700;  -70.893000
 7;213.6;   60.598000;    4.798300;  -68.047000
 7;216.0;   88.105000;    5.966700;  -66.667000
 7;218.4;  133.300000;    7.377500;  -58.489000
 7;220.8;  139.820000;    8.733300;  -43.942000
 7;223.2;  129.460000;    9.821400;  -29.005000
 7;225.6;  121.040000;   10.519000;  -17.551000
 7;228.0;  116.190000;   10.939000;   -8.715500
 7;230.4;  114.560000;   11.221000;   -1.029400
 7;232.8;  115.920000;   11.375000;    6.268700
 7;235.2;  120.510000;   11.513000;   15.225000
 7;237.6;  127.920000;   11.627000;   26.643000
 7;240.0;  132.500000;   11.680000;   41.395000
 7;242.4;  107.560000;   11.375000;   56.036000
 7;244.8;   62.720000;   10.544000;   63.915000
 7;247.2;   50.931000;    9.428600;   65.592000
 7;249.6;   66.535000;    8.512600;   68.729000
 7;252.0;   73.582000;    7.773600;   77.619000
 7;254.4;   33.479000;    6.853200;   86.638000
 7;256.8;  -12.875000;    5.513000;   87.702000
 7;259.2;  -13.239000;    4.060100;   83.692000
 7;261.6;    4.102500;    2.931700;   83.644000
 7;264.0;  -10.255000;    1.817100;   87.877000
 7;266.4;  -64.188000;    0.412700;   87.586000
 7;268.8;  -87.089000;   -1.163400;   79.314000
 7;271.2;  -71.545000;   -2.593900;   70.362000
 7;273.6;  -60.671000;   -3.678300;   67.267000
 7;276.0;  -85.198000;   -4.794000;   66.016000
 7;278.4; -130.160000;   -6.167800;   58.384000
 7;280.8; -139.280000;   -7.491900;   44.464000
 7;283.2; -129.670000;   -8.595000;   29.454000
 7;285.6; -121.300000;   -9.304800;   17.912000
 7;288.0; -116.330000;   -9.743200;    8.943800
 7;290.4; -114.520000;  -10.042000;    1.267300
 7;292.8; -115.660000;  -10.241000;   -6.109500
 7;295.2; -120.010000;  -10.391000;  -14.877000
 7;297.6; -127.300000;  -10.564000;  -26.022000
 7;300.0; -133.010000;  -10.689000;  -40.584000
 7;302.4; -111.930000;  -10.500000;  -55.603000
 7;304.8;  -65.902000;   -9.773100;  -64.271000
 7;307.2;  -50.039000;   -8.683100;  -66.245000
 7;309.6;  -65.017000;   -7.758900;  -68.960000
 7;312.0;  -75.223000;   -7.031100;  -77.523000
 7;314.4;  -39.078000;   -6.143200;  -87.096000
 7;316.8;   11.227000;   -4.795900;  -88.996000
 7;319.2;   15.057000;   -3.322500;  -85.017000
 7;321.6;   -4.189500;   -2.156700;  -84.560000
 7;324.0;    5.616600;   -1.077200;  -89.134000
 7;326.4;   60.766000;    0.297690;  -89.841000
 7;328.8;   89.646000;    1.896600;  -81.864000
 7;331.2;   74.098000;    3.363300;  -72.260000
 7;333.6;   59.923000;    4.449600;  -68.802000
 7;336.0;   81.472000;    5.514200;  -68.026000
 7;338.4;  130.380000;    6.861000;  -61.136000
 7;340.8;  142.580000;    8.218700;  -46.926000
 7;343.2;  132.320000;    9.382300;  -31.353000
 7;345.6;  123.290000;   10.131000;  -19.428000
 7;348.0;  117.880000;   10.622000;  -10.250000
 7;350.4;  115.870000;   10.942000;   -2.542300
 7;352.8;  116.970000;   11.180000;    4.825200
 7;355.2;  121.450000;   11.397000;   13.629000
 7;357.6;  129.260000;   11.610000;   24.720000
