# *CALIBRATION************
# Voff:  -0.000557, -0.000502, 0.000355
# Oe*Vref/V:  18766.300781, 19118.269531, 18920.400390
# mV/Vref/Oe:  0.053287, 0.052306, 0.052853
# Hrel:  0.000000, 0.000000, 0.000000
# ADC Vref:  4.000000
# ADC Bits:  16
# ADC samples:  10
# ADC Speed:  4
# Linearization
# A0:  0.000000, 0.000000, 0.000000
# A1:  1.000000, 1.000000, 1.000000
# A2:  0.000000, 0.000000, 0.000000
# A3:  0.222500, 0.222500, 0.222500
# A4:  0.000000, 0.000000, 0.000000
# A5:  3.403000, 3.403000, 3.403000
# Orthogonalization
# 1.000000, 0.000000, 0.000000
# 0.000000, 1.000000, 0.000000
# 0.000000, 0.000000, 1.000000
# EEPROM Cal Valid, Valid, Valid
# EEPROM Lin Valid, Valid, Valid
# EEPROM Ortho Not Valid
# Sensor ID:   USB25103-1715507101             
# Software Version:  MDTUSBMAG3D.V9.20220510
# ************************
# 
# SENSOR_NB_SAMPLE: 10 
# SENSOR_GAIN: 1 
# SENSOR_READ_DELAY: 0.7 
# SENSOR_Oe_mT: 0.1 
# working dist: 3 mm
# Rotation step angle: 2.4°
# sensor pos #1: 0 mm
# sensor pos #2: 15 mm
# sensor pos #3: 30 mm
# sensor pos #4: 45 mm
# sensor pos #5: 60 mm
# sensor pos #6: 75 mm
# sensor pos #7: 90 mm
#
# ZPos#; a[°]; X1_magn[mT]; Y1_magn[mT]; Z1_magn[mT]
 1;  0.0; -138.880000;   35.796000;   35.522000
 1;  2.4; -134.180000;   37.251000;   23.483000
 1;  4.8; -129.030000;   37.967000;   13.565000
 1;  7.2; -126.220000;   38.289000;    5.832200
 1;  9.6; -125.700000;   38.372000;   -1.124000
 1; 12.0; -127.460000;   38.300000;   -7.969700
 1; 14.4; -131.510000;   37.941000;  -16.027000
 1; 16.8; -136.920000;   37.082000;  -26.216000
 1; 19.2; -137.100000;   35.402000;  -38.351000
 1; 21.6; -113.000000;   32.516000;  -50.071000
 1; 24.0;  -78.267000;   28.932000;  -56.217000
 1; 26.4;  -68.586000;   25.133000;  -58.192000
 1; 28.8;  -77.790000;   21.489000;  -61.687000
 1; 31.2;  -77.345000;   17.519000;  -69.125000
 1; 33.6;  -40.497000;   12.598000;  -76.269000
 1; 36.0;   -1.438000;    7.497300;  -77.051000
 1; 38.4;    3.178100;    2.603500;  -74.192000
 1; 40.8;   -5.495800;   -2.138800;  -74.366000
 1; 43.2;   11.354000;   -7.012100;  -77.460000
 1; 45.6;   58.656000;  -12.343000;  -76.853000
 1; 48.0;   82.540000;  -17.073000;  -69.838000
 1; 50.4;   74.994000;  -21.153000;  -62.234000
 1; 52.8;   69.079000;  -25.018000;  -59.017000
 1; 55.2;   90.873000;  -28.985000;  -57.402000
 1; 57.6;  131.730000;  -32.836000;  -50.734000
 1; 60.0;  144.380000;  -35.621000;  -38.642000
 1; 62.4;  139.080000;  -37.341000;  -25.720000
 1; 64.8;  133.140000;  -38.240000;  -15.283000
 1; 67.2;  129.860000;  -38.687000;   -7.309000
 1; 69.6;  129.110000;  -38.886000;   -0.277750
 1; 72.0;  130.830000;  -38.912000;    6.519600
 1; 74.4;  135.130000;  -38.657000;   14.546000
 1; 76.8;  141.530000;  -37.876000;   24.821000
 1; 79.2;  144.200000;  -36.148000;   37.313000
 1; 81.6;  120.890000;  -32.949000;   49.960000
 1; 84.0;   80.358000;  -28.846000;   56.686000
 1; 86.4;   68.544000;  -24.617000;   58.312000
 1; 88.8;   80.863000;  -20.740000;   61.518000
 1; 91.2;   84.753000;  -16.673000;   69.636000
 1; 93.6;   44.546000;  -11.615000;   77.947000
 1; 96.0;   -2.021500;   -6.317900;   78.794000
 1; 98.4;   -6.053700;   -1.283300;   75.057000
 1;100.8;    7.882900;    3.444400;   74.947000
 1;103.2;   -7.834700;    8.612700;   78.864000
 1;105.6;  -62.966000;   14.215000;   78.703000
 1;108.0;  -89.839000;   19.131000;   70.881000
 1;110.4;  -78.082000;   23.283000;   62.442000
 1;112.8;  -68.320000;   27.245000;   59.485000
 1;115.2;  -92.063000;   31.434000;   58.689000
 1;117.6; -140.740000;   35.500000;   52.015000
 1;120.0; -153.130000;   38.311000;   39.011000
 1;122.4; -145.690000;   39.914000;   25.272000
 1;124.8; -138.880000;   40.660000;   14.548000
 1;127.2; -135.310000;   41.003000;    6.455300
 1;129.6; -134.630000;   41.123000;   -0.668720
 1;132.0; -136.700000;   41.102000;   -7.526300
 1;134.4; -141.780000;   40.851000;  -15.836000
 1;136.8; -149.670000;   40.097000;  -26.721000
 1;139.2; -153.840000;   38.346000;  -40.318000
 1;141.6; -124.370000;   35.129000;  -53.810000
 1;144.0;  -77.091000;   30.967000;  -60.052000
 1;146.4;  -69.008000;   26.782000;  -60.601000
 1;148.8;  -85.793000;   22.964000;  -63.737000
 1;151.2;  -89.795000;   18.719000;  -72.675000
 1;153.6;  -40.273000;   13.273000;  -81.077000
 1;156.0;    7.971300;    7.605200;  -80.797000
 1;158.4;    5.064700;    2.386500;  -76.321000
 1;160.8;  -11.633000;   -2.521500;  -76.924000
 1;163.2;   10.500000;   -7.858600;  -81.517000
 1;165.6;   73.021000;  -13.731000;  -80.532000
 1;168.0;   93.956000;  -18.682000;  -71.474000
 1;170.4;   77.306000;  -22.811000;  -62.986000
 1;172.8;   68.766000;  -26.820000;  -60.780000
 1;175.2;  100.420000;  -31.118000;  -59.863000
 1;177.6;  149.840000;  -35.180000;  -51.747000
 1;180.0;  155.640000;  -37.847000;  -37.727000
 1;182.4;  146.430000;  -39.287000;  -23.982000
 1;184.8;  139.480000;  -39.920000;  -13.559000
 1;187.2;  136.070000;  -40.163000;   -5.715900
 1;189.6;  135.610000;  -40.212000;    1.316800
 1;192.0;  137.960000;  -40.142000;    8.324400
 1;194.4;  143.430000;  -39.817000;   16.986000
 1;196.8;  151.440000;  -38.936000;   28.400000
 1;199.2;  152.930000;  -37.007000;   42.369000
 1;201.6;  115.840000;  -33.559000;   55.163000
 1;204.0;   72.329000;  -29.338000;   60.095000
 1;206.4;   70.083000;  -25.213000;   60.415000
 1;208.8;   86.930000;  -21.344000;   64.324000
 1;211.2;   84.035000;  -16.950000;   73.500000
 1;213.6;   29.529000;  -11.351000;   80.679000
 1;216.0;  -10.596000;   -5.818300;   79.198000
 1;218.4;   -3.310900;   -0.702660;   75.050000
 1;220.8;    8.824200;    4.175100;   76.266000
 1;223.2;  -20.962000;    9.492800;   80.077000
 1;225.6;  -78.072000;   15.096000;   77.458000
 1;228.0;  -90.227000;   19.773000;   68.200000
 1;230.4;  -74.672000;   23.757000;   60.616000
 1;232.8;  -71.566000;   27.725000;   58.607000
 1;235.2; -105.890000;   31.834000;   56.604000
 1;237.6; -146.430000;   35.565000;   47.708000
 1;240.0; -149.380000;   37.958000;   34.263000
 1;242.4; -141.190000;   39.277000;   21.354000
 1;244.8; -135.050000;   39.891000;   11.497000
 1;247.2; -132.030000;   40.151000;    3.935000
 1;249.6; -131.670000;   40.213000;   -3.059600
 1;252.0; -133.890000;   40.124000;  -10.037000
 1;254.4; -138.770000;   39.762000;  -18.595000
 1;256.8; -145.100000;   38.805000;  -29.694000
 1;259.2; -143.080000;   36.834000;  -42.731000
 1;261.6; -108.510000;   33.494000;  -54.222000
 1;264.0;  -72.385000;   29.500000;  -58.912000
 1;266.4;  -70.041000;   25.556000;  -59.945000
 1;268.8;  -82.361000;   21.771000;  -64.107000
 1;271.2;  -75.754000;   17.488000;  -72.393000
 1;273.6;  -28.534000;   12.189000;  -78.606000
 1;276.0;    5.565700;    6.917000;  -77.566000
 1;278.4;    1.822700;    1.993700;  -74.357000
 1;280.8;   -5.146500;   -2.812800;  -75.439000
 1;283.2;   22.405000;   -7.930300;  -78.296000
 1;285.6;   70.841000;  -13.343000;  -75.679000
 1;288.0;   83.773000;  -17.964000;  -67.446000
 1;290.4;   72.908000;  -21.919000;  -60.438000
 1;292.8;   71.809000;  -25.801000;  -57.900000
 1;295.2;  100.570000;  -29.736000;  -55.478000
 1;297.6;  136.260000;  -33.320000;  -47.243000
 1;300.0;  141.930000;  -35.710000;  -34.816000
 1;302.4;  135.870000;  -37.063000;  -22.642000
 1;304.8;  130.450000;  -37.705000;  -12.862000
 1;307.2;  127.630000;  -37.932000;   -5.278400
 1;309.6;  127.200000;  -37.968000;    1.697800
 1;312.0;  129.090000;  -37.822000;    8.672200
 1;314.4;  133.230000;  -37.363000;   17.050000
 1;316.8;  138.370000;  -36.380000;   27.676000
 1;319.2;  136.120000;  -34.470000;   39.964000
 1;321.6;  107.580000;  -31.324000;   51.102000
 1;324.0;   74.183000;  -27.549000;   56.410000
 1;326.4;   68.224000;  -23.688000;   58.107000
 1;328.8;   77.410000;  -19.935000;   62.026000
 1;331.2;   72.685000;  -15.865000;   69.443000
 1;333.6;   32.628000;  -10.810000;   75.703000
 1;336.0;   -1.674400;   -5.683900;   75.560000
 1;338.4;   -2.875800;   -0.858370;   72.792000
 1;340.8;    3.236400;    3.827100;   73.295000
 1;343.2;  -18.214000;    8.779200;   75.913000
 1;345.6;  -62.782000;   13.948000;   74.210000
 1;348.0;  -80.674000;   18.456000;   66.965000
 1;350.4;  -73.158000;   22.369000;   59.942000
 1;352.8;  -70.813000;   26.082000;   56.902000
 1;355.2;  -94.699000;   29.865000;   54.563000
 1;357.6; -129.860000;   33.375000;   47.228000
 1;360.0; -138.900000;   35.818000;   35.551000
 2;  0.0; -121.820000;    9.790800;   24.652000
 2;  2.4; -115.710000;    9.952900;   13.690000
 2;  4.8; -112.670000;    9.965500;    5.287200
 2;  7.2; -112.410000;    9.846400;   -2.366400
 2;  9.6; -114.860000;    9.545500;   -9.972700
 2; 12.0; -120.220000;    9.064100;  -19.108000
 2; 14.4; -127.850000;    8.468900;  -30.856000
 2; 16.8; -131.000000;    7.763600;  -44.849000
 2; 19.2; -107.150000;    6.966000;  -58.326000
 2; 21.6;  -68.824000;    6.049600;  -65.219000
 2; 24.0;  -59.492000;    4.959300;  -67.091000
 2; 26.4;  -73.156000;    3.771800;  -70.852000
 2; 28.8;  -76.927000;    2.649000;  -79.236000
 2; 31.2;  -38.899000;    1.613200;  -87.102000
 2; 33.6;    1.681600;    0.584470;  -87.469000
 2; 36.0;    2.014400;   -0.623490;  -84.001000
 2; 38.4;  -11.958000;   -1.828800;  -84.401000
 2; 40.8;    4.579700;   -2.818700;  -87.899000
 2; 43.2;   54.890000;   -3.723900;  -86.518000
 2; 45.6;   75.472000;   -4.642100;  -78.133000
 2; 48.0;   62.458000;   -5.651000;  -69.949000
 2; 50.4;   54.697000;   -6.565900;  -66.951000
 2; 52.8;   80.604000;   -7.241700;  -64.897000
 2; 55.2;  123.740000;   -7.725300;  -56.228000
 2; 57.6;  133.110000;   -8.076300;  -41.802000
 2; 60.0;  125.390000;   -8.367200;  -27.157000
 2; 62.4;  118.550000;   -8.537100;  -15.713000
 2; 64.8;  115.060000;   -8.565800;   -7.000400
 2; 67.2;  114.600000;   -8.462400;    0.718900
 2; 69.6;  117.060000;   -8.197700;    8.277100
 2; 72.0;  122.760000;   -7.727200;   17.428000
 2; 74.4;  131.590000;   -7.103900;   29.399000
 2; 76.8;  137.800000;   -6.400800;   43.894000
 2; 79.2;  114.670000;   -5.626000;   58.777000
 2; 81.6;   69.399000;   -4.739500;   66.336000
 2; 84.0;   57.597000;   -3.636500;   67.669000
 2; 86.4;   74.777000;   -2.427800;   70.881000
 2; 88.8;   83.453000;   -1.335900;   79.845000
 2; 91.2;   42.246000;   -0.380040;   88.803000
 2; 93.6;   -5.667300;    0.597910;   89.146000
 2; 96.0;   -4.465100;    1.788300;   84.753000
 2; 98.4;   15.230000;    2.979900;   84.991000
 2;100.8;   -0.053205;    3.947700;   89.434000
 2;103.2;  -58.403000;    4.791200;   88.498000
 2;105.6;  -81.366000;    5.666500;   79.176000
 2;108.0;  -63.601000;    6.678400;   70.096000
 2;110.4;  -52.016000;    7.577600;   67.407000
 2;112.8;  -80.540000;    8.162400;   66.085000
 2;115.2; -130.430000;    8.502900;   57.106000
 2;117.6; -137.810000;    8.772500;   41.560000
 2;120.0; -127.730000;    9.018600;   26.210000
 2;122.4; -120.010000;    9.163500;   14.555000
 2;124.8; -116.250000;    9.187400;    5.846300
 2;127.2; -115.820000;    9.061200;   -1.830500
 2;129.6; -118.510000;    8.773600;   -9.354000
 2;132.0; -124.840000;    8.324400;  -18.703000
 2;134.4; -134.950000;    7.753500;  -30.984000
 2;136.8; -142.900000;    7.153800;  -46.552000
 2;139.2; -115.130000;    6.537700;  -62.039000
 2;141.6;  -64.958000;    5.804700;  -69.054000
 2;144.0;  -56.914000;    4.769200;  -69.526000
 2;146.4;  -78.800000;    3.611700;  -72.912000
 2;148.8;  -87.935000;    2.591500;  -82.930000
 2;151.2;  -36.851000;    1.683800;  -92.121000
 2;153.6;   11.690000;    0.706570;  -91.319000
 2;156.0;    3.409400;   -0.531260;  -86.159000
 2;158.4;  -19.319000;   -1.750100;  -87.142000
 2;160.8;    2.532700;   -2.689500;  -92.191000
 2;163.2;   67.668000;   -3.484900;  -90.240000
 2;165.6;   83.768000;   -4.390400;  -79.516000
 2;168.0;   61.554000;   -5.407200;  -70.610000
 2;170.4;   51.232000;   -6.241700;  -68.673000
 2;172.8;   87.411000;   -6.778300;  -67.118000
 2;175.2;  137.270000;   -7.173800;  -56.824000
 2;177.6;  138.940000;   -7.533000;  -40.293000
 2;180.0;  127.650000;   -7.833600;  -24.951000
 2;182.4;  120.080000;   -8.026600;  -13.656000
 2;184.8;  116.610000;   -8.069900;   -5.166000
 2;187.2;  116.500000;   -7.934000;    2.468700
 2;189.6;  119.580000;   -7.668900;   10.190000
 2;192.0;  126.430000;   -7.247300;   19.877000
 2;194.4;  136.880000;   -6.699200;   32.732000
 2;196.8;  142.500000;   -6.173800;   48.653000
 2;199.2;  106.780000;   -5.561000;   63.363000
 2;201.6;   60.036000;   -4.802300;   69.016000
 2;204.0;   58.646000;   -3.747800;   69.229000
 2;206.4;   80.840000;   -2.612200;   73.461000
 2;208.8;   83.139000;   -1.625000;   83.771000
 2;211.2;   27.320000;   -0.806840;   91.619000
 2;213.6;  -13.546000;    0.302550;   89.640000
 2;216.0;   -0.999580;    1.542200;   84.851000
 2;218.4;   16.944000;    2.748700;   86.399000
 2;220.8;  -12.389000;    3.653800;   90.587000
 2;223.2;  -71.794000;    4.528400;   87.126000
 2;225.6;  -80.467000;    5.498100;   76.514000
 2;228.0;  -59.993000;    6.589600;   68.425000
 2;230.4;  -55.801000;    7.458100;   66.550000
 2;232.8;  -93.699000;    8.048100;   63.827000
 2;235.2; -134.930000;    8.519000;   52.689000
 2;237.6; -134.540000;    8.938300;   36.886000
 2;240.0; -124.620000;    9.269900;   22.485000
 2;242.4; -117.870000;    9.474500;   11.666000
 2;244.8; -114.860000;    9.527900;    3.395100
 2;247.2; -114.980000;    9.434200;   -4.200400
 2;249.6; -118.070000;    9.168700;  -11.953000
 2;252.0; -124.530000;    8.741500;  -21.699000
 2;254.4; -133.480000;    8.198900;  -34.403000
 2;256.8; -134.910000;    7.618300;  -49.442000
 2;259.2; -100.000000;    6.964800;  -62.662000
 2;261.6;  -61.178000;    6.128800;  -67.836000
 2;264.0;  -60.644000;    5.035400;  -68.810000
 2;266.4;  -78.117000;    3.892800;  -73.487000
 2;268.8;  -75.070000;    2.877500;  -82.867000
 2;271.2;  -25.441000;    1.873800;  -89.566000
 2;273.6;    8.288300;    0.790590;  -87.898000
 2;276.0;   -0.969530;   -0.476750;  -84.217000
 2;278.4;  -12.634000;   -1.693300;  -85.739000
 2;280.8;   15.983000;   -2.683200;  -88.883000
 2;283.2;   66.555000;   -3.659600;  -85.238000
 2;285.6;   75.411000;   -4.688400;  -75.695000
 2;288.0;   59.890000;   -5.756300;  -68.249000
 2;290.4;   58.607000;   -6.670000;  -65.802000
 2;292.8;   91.703000;   -7.322800;  -62.524000
 2;295.2;  127.820000;   -7.812300;  -51.967000
 2;297.6;  130.060000;   -8.210300;  -37.264000
 2;300.0;  122.050000;   -8.530000;  -23.549000
 2;302.4;  116.000000;   -8.695800;  -12.868000
 2;304.8;  113.180000;   -8.711100;   -4.611300
 2;307.2;  113.170000;   -8.590800;    3.011900
 2;309.6;  115.920000;   -8.323900;   10.767000
 2;312.0;  121.560000;   -7.885500;   20.199000
 2;314.4;  129.150000;   -7.311200;   32.337000
 2;316.8;  130.200000;   -6.673000;   46.517000
 2;319.2;  101.650000;   -5.938200;   59.387000
 2;321.6;   65.198000;   -5.034100;   65.337000
 2;324.0;   60.050000;   -3.950500;   66.988000
 2;326.4;   73.858000;   -2.763500;   71.234000
 2;328.8;   73.007000;   -1.663800;   79.722000
 2;331.2;   31.510000;   -0.611550;   86.625000
 2;333.6;   -4.034100;    0.507170;   86.067000
 2;336.0;   -1.102200;    1.682300;   82.687000
 2;338.4;    9.867300;    2.962300;   83.439000
 2;340.8;  -11.628000;    4.001500;   86.319000
 2;343.2;  -58.694000;    4.932800;   83.793000
 2;345.6;  -73.647000;    5.911500;   75.263000
 2;348.0;  -61.369000;    6.929000;   67.634000
 2;350.4;  -57.623000;    7.873000;   64.676000
 2;352.8;  -84.884000;    8.551100;   61.783000
 2;355.2; -122.050000;    9.078300;   52.496000
 2;357.6; -128.690000;    9.460300;   38.543000
 2;360.0; -121.830000;    9.776200;   24.790000
 3;  0.0; -113.010000;    3.386100;   11.506000
 3;  2.4; -110.550000;    3.110200;    3.259100
 3;  4.8; -111.130000;    2.743500;   -4.643500
 3;  7.2; -114.730000;    2.256200;  -13.027000
 3;  9.6; -121.570000;    1.555300;  -23.697000
 3; 12.0; -129.450000;    0.602760;  -37.634000
 3; 14.4; -121.790000;   -0.398710;  -53.185000
 3; 16.8;  -79.459000;   -1.100300;  -65.033000
 3; 19.2;  -50.782000;   -1.356900;  -69.010000
 3; 21.6;  -58.278000;   -1.694000;  -70.781000
 3; 24.0;  -74.372000;   -2.438600;  -77.265000
 3; 26.4;  -58.932000;   -3.264200;  -87.171000
 3; 28.8;   -4.953700;   -3.612200;  -92.320000
 3; 31.2;   15.152000;   -3.605500;  -89.581000
 3; 33.6;   -1.350000;   -3.833300;  -87.161000
 3; 36.0;   -6.883500;   -4.365800;  -90.379000
 3; 38.4;   34.589000;   -4.683500;  -93.147000
 3; 40.8;   79.339000;   -4.505000;  -87.781000
 3; 43.2;   74.913000;   -4.167800;  -77.809000
 3; 45.6;   56.450000;   -4.215300;  -71.925000
 3; 48.0;   63.214000;   -4.427400;  -70.833000
 3; 50.4;  107.970000;   -4.233600;  -66.534000
 3; 52.8;  137.060000;   -3.544600;  -53.556000
 3; 55.2;  131.140000;   -2.770900;  -37.714000
 3; 57.6;  121.030000;   -2.180200;  -23.785000
 3; 60.0;  114.540000;   -1.794100;  -13.158000
 3; 62.4;  111.800000;   -1.453600;   -4.860400
 3; 64.8;  112.240000;   -1.065200;    3.097600
 3; 67.2;  115.920000;   -0.571590;   11.406000
 3; 69.6;  123.260000;    0.143100;   22.048000
 3; 72.0;  133.010000;    1.137100;   36.340000
 3; 74.4;  128.820000;    2.196100;   52.622000
 3; 76.8;   82.165000;    2.900700;   65.649000
 3; 79.2;   48.279000;    3.040300;   69.627000
 3; 81.6;   57.262000;    3.231500;   70.676000
 3; 84.0;   78.274000;    3.936100;   77.164000
 3; 86.4;   65.034000;    4.814800;   88.158000
 3; 88.8;    4.194900;    5.175800;   94.068000
 3; 91.2;  -20.031000;    5.040300;   90.760000
 3; 93.6;    1.449900;    5.178500;   87.549000
 3; 96.0;   11.972000;    5.740800;   91.242000
 3; 98.4;  -33.367000;    6.086600;   95.005000
 3;100.8;  -86.670000;    5.725500;   89.133000
 3;103.2;  -78.818000;    5.293100;   78.184000
 3;105.6;  -55.477000;    5.296500;   72.025000
 3;108.0;  -60.787000;    5.539500;   71.579000
 3;110.4; -111.820000;    5.369600;   67.805000
 3;112.8; -143.680000;    4.577300;   54.156000
 3;115.2; -134.540000;    3.736700;   37.036000
 3;117.6; -123.060000;    3.150100;   22.739000
 3;120.0; -116.090000;    2.765100;   12.086000
 3;122.4; -113.210000;    2.458200;    3.729500
 3;124.8; -113.810000;    2.088500;   -4.150200
 3;127.2; -117.840000;    1.596000;  -12.514000
 3;129.6; -126.110000;    0.846220;  -23.447000
 3;132.0; -137.580000;   -0.209020;  -38.251000
 3;134.4; -132.920000;   -1.355700;  -55.657000
 3;136.8;  -77.590000;   -2.054400;  -68.831000
 3;139.2;  -44.111000;   -2.111900;  -71.777000
 3;141.6;  -58.943000;   -2.301600;  -72.306000
 3;144.0;  -83.414000;   -3.092100;  -79.588000
 3;146.4;  -64.697000;   -3.899400;  -91.503000
 3;148.8;    4.003900;   -4.118600;  -96.838000
 3;151.2;   23.043000;   -3.880300;  -92.311000
 3;153.6;   -4.645800;   -4.041600;  -89.157000
 3;156.0;  -13.486000;   -4.648800;  -93.849000
 3;158.4;   41.216000;   -4.908700;  -97.514000
 3;160.8;   93.750000;   -4.427700;  -90.218000
 3;163.2;   78.535000;   -3.951600;  -78.373000
 3;165.6;   53.300000;   -4.027800;  -72.807000
 3;168.0;   63.494000;   -4.284700;  -72.932000
 3;170.4;  121.340000;   -4.009100;  -68.233000
 3;172.8;  146.870000;   -3.157000;  -53.128000
 3;175.2;  134.730000;   -2.327000;  -35.840000
 3;177.6;  122.880000;   -1.762800;  -21.617000
 3;180.0;  116.190000;   -1.418800;  -11.273000
 3;182.4;  113.590000;   -1.133900;   -3.131700
 3;184.8;  114.530000;   -0.761280;    4.747300
 3;187.2;  118.970000;   -0.275110;   13.283000
 3;189.6;  127.790000;    0.448920;   24.650000
 3;192.0;  139.120000;    1.467200;   40.027000
 3;194.4;  129.160000;    2.494800;   57.319000
 3;196.8;   71.331000;    3.006400;   69.331000
 3;199.2;   44.111000;    3.018700;   71.427000
 3;201.6;   61.980000;    3.240100;   72.389000
 3;204.0;   83.936000;    4.008200;   80.477000
 3;206.4;   56.683000;    4.794600;   91.934000
 3;208.8;   -9.557000;    4.918200;   95.761000
 3;211.2;  -20.865000;    4.668800;   90.726000
 3;213.6;    6.021700;    4.878600;   88.234000
 3;216.0;    7.955900;    5.413000;   92.876000
 3;218.4;  -48.757000;    5.571700;   95.255000
 3;220.8;  -91.447000;    5.126900;   87.138000
 3;223.2;  -74.952000;    4.767000;   76.033000
 3;225.6;  -53.729000;    4.888700;   71.102000
 3;228.0;  -69.642000;    5.119100;   70.655000
 3;230.4; -123.370000;    4.843900;   64.788000
 3;232.8; -142.370000;    4.097800;   49.567000
 3;235.2; -131.220000;    3.436900;   33.051000
 3;237.6; -120.630000;    2.981300;   19.595000
 3;240.0; -114.580000;    2.680400;    9.554300
 3;242.4; -112.320000;    2.414500;    1.511900
 3;244.8; -113.380000;    2.095300;   -6.417700
 3;247.2; -117.720000;    1.635200;  -15.044000
 3;249.6; -125.860000;    0.955630;  -26.402000
 3;252.0; -134.640000;    0.048632;  -41.389000
 3;254.4; -120.940000;   -0.840070;  -57.508000
 3;256.8;  -69.874000;   -1.345300;  -68.412000
 3;259.2;  -47.332000;   -1.452500;  -70.767000
 3;261.6;  -62.273000;   -1.772100;  -72.521000
 3;264.0;  -78.152000;   -2.548400;  -80.393000
 3;266.4;  -49.946000;   -3.268700;  -90.541000
 3;268.8;    6.154400;   -3.443400;  -93.744000
 3;271.2;   15.726000;   -3.363900;  -89.698000
 3;273.6;   -5.278100;   -3.611800;  -87.976000
 3;276.0;   -2.406000;   -4.144300;  -91.978000
 3;278.4;   47.977000;   -4.320600;  -93.475000
 3;280.8;   84.487000;   -4.026700;  -85.915000
 3;283.2;   72.327000;   -3.805300;  -75.908000
 3;285.6;   55.880000;   -3.969900;  -71.042000
 3;288.0;   71.672000;   -4.194000;  -69.715000
 3;290.4;  117.790000;   -4.020700;  -63.679000
 3;292.8;  136.500000;   -3.409100;  -49.453000
 3;295.2;  128.240000;   -2.798200;  -33.804000
 3;297.6;  118.950000;   -2.385200;  -20.761000
 3;300.0;  113.250000;   -2.069700;  -10.688000
 3;302.4;  111.070000;   -1.796400;   -2.585900
 3;304.8;  111.990000;   -1.454700;    5.367300
 3;307.2;  115.970000;   -0.979350;   13.975000
 3;309.6;  123.140000;   -0.284820;   25.043000
 3;312.0;  130.340000;    0.613590;   39.430000
 3;314.4;  118.270000;    1.447800;   54.722000
 3;316.8;   73.630000;    2.162100;   65.650000
 3;319.2;   49.986000;    2.388000;   68.831000
 3;321.6;   60.487000;    2.730400;   70.884000
 3;324.0;   74.180000;    3.478000;   78.100000
 3;326.4;   51.237000;    4.237900;   87.650000
 3;328.8;   -0.166100;    4.527600;   91.414000
 3;331.2;  -14.300000;    4.509300;   88.199000
 3;333.6;    2.418300;    4.757300;   86.270000
 3;336.0;    1.903000;    5.276300;   89.530000
 3;338.4;  -41.513000;    5.546600;   91.188000
 3;340.8;  -79.368000;    5.346500;   84.748000
 3;343.2;  -72.108000;    5.127700;   75.322000
 3;345.6;  -56.795000;    5.282600;   70.093000
 3;348.0;  -68.745000;    5.513400;   68.566000
 3;350.4; -111.280000;    5.386400;   63.222000
 3;352.8; -133.790000;    4.815100;   50.017000
 3;355.2; -127.750000;    4.194200;   34.778000
 3;357.6; -118.760000;    3.718800;   21.623000
 3;360.0; -112.930000;    3.379800;   11.348000
 4;  0.0; -110.860000;   -0.166070;    0.959100
 4;  2.4; -112.460000;   -0.484220;   -7.154900
 4;  4.8; -117.350000;   -0.884500;  -16.059000
 4;  7.2; -125.930000;   -1.329200;  -27.653000
 4;  9.6; -135.220000;   -1.770600;  -42.785000
 4; 12.0; -123.430000;   -2.048000;  -58.683000
 4; 14.4;  -73.945000;   -2.141000;  -69.322000
 4; 16.8;  -50.558000;   -2.208200;  -71.662000
 4; 19.2;  -64.928000;   -2.402800;  -73.552000
 4; 21.6;  -82.485000;   -2.646200;  -81.602000
 4; 24.0;  -57.523000;   -2.717900;  -91.906000
 4; 26.4;    0.346310;   -2.633900;  -95.200000
 4; 28.8;   12.459000;   -2.539400;  -91.018000
 4; 31.2;   -9.794100;   -2.609600;  -89.296000
 4; 33.6;  -10.736000;   -2.606300;  -93.676000
 4; 36.0;   40.227000;   -2.352700;  -95.469000
 4; 38.4;   82.107000;   -1.952800;  -87.677000
 4; 40.8;   69.878000;   -1.684000;  -77.278000
 4; 43.2;   50.294000;   -1.503200;  -72.507000
 4; 45.6;   64.325000;   -1.160100;  -71.701000
 4; 48.0;  115.090000;   -0.567480;  -65.700000
 4; 50.4;  138.110000;    0.103520;  -50.678000
 4; 52.8;  129.040000;    0.607990;  -34.236000
 4; 55.2;  119.130000;    0.965710;  -20.808000
 4; 57.6;  113.410000;    1.297300;  -10.673000
 4; 60.0;  111.470000;    1.590800;   -2.565600
 4; 62.4;  112.940000;    1.933900;    5.437200
 4; 64.8;  117.880000;    2.336100;   14.228000
 4; 67.2;  127.060000;    2.805800;   25.824000
 4; 69.6;  138.600000;    3.252400;   41.247000
 4; 72.0;  130.780000;    3.523500;   58.077000
 4; 74.4;   76.280000;    3.553000;   69.746000
 4; 76.8;   48.372000;    3.554900;   71.927000
 4; 79.2;   65.132000;    3.731100;   73.229000
 4; 81.6;   87.931000;    4.011200;   81.545000
 4; 84.0;   63.812000;    4.081000;   93.089000
 4; 86.4;   -2.986200;    3.920500;   96.832000
 4; 88.8;  -16.304000;    3.777100;   91.786000
 4; 91.2;   11.519000;    3.826400;   89.527000
 4; 93.6;   16.161000;    3.800200;   94.611000
 4; 96.0;  -41.108000;    3.430600;   97.107000
 4; 98.4;  -88.365000;    2.924600;   88.624000
 4;100.8;  -71.542000;    2.628900;   77.257000
 4;103.2;  -47.350000;    2.472400;   72.606000
 4;105.6;  -61.782000;    2.101600;   72.684000
 4;108.0; -120.270000;    1.453800;   66.785000
 4;110.4; -143.530000;    0.723370;   50.671000
 4;112.8; -131.490000;    0.198370;   33.346000
 4;115.2; -120.470000;   -0.185120;   19.576000
 4;117.6; -114.470000;   -0.493920;    9.488500
 4;120.0; -112.530000;   -0.788540;    1.411400
 4;122.4; -114.190000;   -1.134300;   -6.598000
 4;124.8; -119.600000;   -1.539500;  -15.458000
 4;127.2; -129.880000;   -2.032000;  -27.425000
 4;129.6; -143.410000;   -2.491300;  -43.591000
 4;132.0; -133.560000;   -2.690700;  -61.390000
 4;134.4;  -70.500000;   -2.648500;  -72.753000
 4;136.8;  -44.916000;   -2.606600;  -73.790000
 4;139.2;  -67.238000;   -2.772400;  -74.748000
 4;141.6;  -92.951000;   -2.983400;  -83.855000
 4;144.0;  -62.337000;   -2.909500;  -96.068000
 4;146.4;   10.225000;   -2.617800;  -99.046000
 4;148.8;   17.607000;   -2.432600;  -93.029000
 4;151.2;  -15.356000;   -2.460300;  -91.088000
 4;153.6;  -17.198000;   -2.343000;  -97.060000
 4;156.0;   48.988000;   -1.880000;  -99.221000
 4;158.4;   93.311000;   -1.337100;  -89.325000
 4;160.8;   70.432000;   -1.066000;  -77.517000
 4;163.2;   45.193000;   -0.911020;  -73.550000
 4;165.6;   65.287000;   -0.502510;  -73.923000
 4;168.0;  128.430000;    0.169990;  -67.068000
 4;170.4;  145.430000;    0.836510;  -49.817000
 4;172.8;  131.380000;    1.277500;  -32.277000
 4;175.2;  120.360000;    1.591900;  -18.770000
 4;177.6;  114.610000;    1.856300;   -8.904300
 4;180.0;  112.960000;    2.118000;   -0.959180
 4;182.4;  114.970000;    2.443600;    7.082000
 4;184.8;  120.780000;    2.826800;   16.164000
 4;187.2;  131.560000;    3.270700;   28.520000
 4;189.6;  144.750000;    3.656500;   45.092000
 4;192.0;  128.980000;    3.801000;   62.645000
 4;194.4;   65.158000;    3.717700;   72.889000
 4;196.8;   45.960000;    3.669500;   73.366000
 4;199.2;   70.426000;    3.865900;   74.999000
 4;201.6;   92.324000;    4.024600;   84.807000
 4;204.0;   52.127000;    3.880500;   96.248000
 4;206.4;  -14.794000;    3.563100;   97.593000
 4;208.8;  -14.717000;    3.414100;   91.407000
 4;211.2;   16.224000;    3.439500;   90.249000
 4;213.6;   10.024000;    3.267700;   95.927000
 4;216.0;  -55.873000;    2.814100;   96.678000
 4;218.4;  -90.141000;    2.315600;   86.248000
 4;220.8;  -67.269000;    2.090000;   75.342000
 4;223.2;  -46.754000;    1.888400;   71.871000
 4;225.6;  -71.726000;    1.433600;   71.418000
 4;228.0; -129.140000;    0.832030;   63.513000
 4;230.4; -141.030000;    0.220400;   46.452000
 4;232.8; -128.370000;   -0.181760;   29.818000
 4;235.2; -118.370000;   -0.436420;   16.879000
 4;237.6; -113.170000;   -0.675400;    7.283400
 4;240.0; -111.810000;   -0.928190;   -0.597400
 4;242.4; -113.880000;   -1.209000;   -8.674800
 4;244.8; -119.550000;   -1.549900;  -17.826000
 4;247.2; -129.530000;   -1.955400;  -30.155000
 4;249.6; -139.710000;   -2.269500;  -46.278000
 4;252.0; -120.390000;   -2.376300;  -62.565000
 4;254.4;  -64.637000;   -2.292200;  -71.858000
 4;256.8;  -48.866000;   -2.270200;  -72.867000
 4;259.2;  -69.568000;   -2.425500;  -75.175000
 4;261.6;  -85.363000;   -2.543500;  -84.552000
 4;264.0;  -47.070000;   -2.444200;  -94.641000
 4;266.4;   10.189000;   -2.210100;  -95.862000
 4;268.8;   10.813000;   -2.127200;  -90.835000
 4;271.2;  -13.785000;   -2.177600;  -90.173000
 4;273.6;   -4.469500;   -2.082000;  -95.032000
 4;276.0;   53.812000;   -1.730300;  -95.160000
 4;278.4;   84.185000;   -1.375500;  -85.656000
 4;280.8;   66.207000;   -1.195500;  -75.665000
 4;283.2;   50.135000;   -1.053700;  -71.969000
 4;285.6;   73.594000;   -0.721700;  -70.708000
 4;288.0;  123.690000;   -0.189970;  -62.832000
 4;290.4;  136.910000;    0.333540;  -46.783000
 4;292.8;  126.660000;    0.717400;  -30.789000
 4;295.2;  117.630000;    0.995210;  -18.073000
 4;297.6;  112.690000;    1.249500;   -8.447200
 4;300.0;  111.330000;    1.506400;   -0.493190
 4;302.4;  113.240000;    1.801000;    7.668500
 4;304.8;  118.460000;    2.162800;   16.809000
 4;307.2;  127.390000;    2.581400;   28.857000
 4;309.6;  135.780000;    2.957800;   44.317000
 4;312.0;  118.650000;    3.170300;   59.961000
 4;314.4;   68.593000;    3.201700;   69.467000
 4;316.8;   50.736000;    3.225600;   71.237000
 4;319.2;   67.127000;    3.409600;   73.645000
 4;321.6;   81.356000;    3.611700;   82.251000
 4;324.0;   49.664000;    3.610900;   91.930000
 4;326.4;   -4.571100;    3.471300;   93.963000
 4;328.8;  -10.770000;    3.415600;   89.594000
 4;331.2;   10.269000;    3.477200;   88.498000
 4;333.6;    4.656700;    3.435800;   92.642000
 4;336.0;  -46.844000;    3.175100;   93.220000
 4;338.4;  -80.569000;    2.836500;   84.838000
 4;340.8;  -67.075000;    2.618800;   75.092000
 4;343.2;  -51.110000;    2.485100;   70.897000
 4;345.6;  -69.427000;    2.172600;   69.570000
 4;348.0; -117.020000;    1.666200;   62.633000
 4;350.4; -135.060000;    1.100500;   47.600000
 4;352.8; -126.550000;    0.700220;   31.757000
 4;355.2; -117.580000;    0.369390;   18.844000
 4;357.6; -112.440000;    0.087093;    8.964100
 4;360.0; -110.840000;   -0.177280;    0.902930
 5;  0.0; -114.620000;   -2.965900;   -9.866200
 5;  2.4; -121.040000;   -3.422200;  -19.695000
 5;  4.8; -131.260000;   -4.014000;  -33.037000
 5;  7.2; -135.710000;   -4.613300;  -49.929000
 5;  9.6;  -98.901000;   -4.924000;  -64.947000
 5; 12.0;  -50.648000;   -4.761200;  -71.499000
 5; 14.4;  -49.841000;   -4.505400;  -72.029000
 5; 16.8;  -73.415000;   -4.560300;  -76.375000
 5; 19.2;  -76.997000;   -4.782800;  -87.389000
 5; 21.6;  -21.884000;   -4.660000;  -96.030000
 5; 24.0;   22.291000;   -4.054000;  -94.646000
 5; 26.4;    7.785800;   -3.548000;  -89.980000
 5; 28.8;  -14.810000;   -3.411700;  -91.772000
 5; 31.2;   14.006000;   -3.213400;  -97.281000
 5; 33.6;   77.955000;   -2.543500;  -94.942000
 5; 36.0;   87.661000;   -1.661200;  -83.636000
 5; 38.4;   62.590000;   -1.106300;  -75.014000
 5; 40.8;   52.428000;   -0.810940;  -73.488000
 5; 43.2;   92.656000;   -0.315060;  -72.045000
 5; 45.6;  141.190000;    0.575130;  -61.674000
 5; 48.0;  139.650000;    1.599800;  -44.144000
 5; 50.4;  126.690000;    2.383200;  -28.593000
 5; 52.8;  117.770000;    2.918600;  -16.702000
 5; 55.2;  113.300000;    3.307000;   -7.635300
 5; 57.6;  112.540000;    3.628800;    0.076642
 5; 60.0;  115.270000;    4.029900;    8.280400
 5; 62.4;  121.910000;    4.511200;   17.960000
 5; 64.8;  133.120000;    5.149700;   31.291000
 5; 67.2;  141.240000;    5.849500;   48.620000
 5; 69.6;  105.120000;    6.247100;   64.761000
 5; 72.0;   49.753000;    6.079900;   71.874000
 5; 74.4;   48.035000;    5.783400;   71.863000
 5; 76.8;   75.545000;    5.830800;   75.863000
 5; 79.2;   84.824000;    6.147800;   87.632000
 5; 81.6;   24.411000;    6.057800;   97.557000
 5; 84.0;  -27.640000;    5.383500;   96.026000
 5; 86.4;  -10.377000;    4.824100;   90.306000
 5; 88.8;   18.528000;    4.702700;   91.924000
 5; 91.2;   -9.351700;    4.500400;   98.427000
 5; 93.6;  -82.484000;    3.753900;   96.492000
 5; 96.0;  -92.562000;    2.764400;   84.240000
 5; 98.4;  -62.575000;    2.172900;   74.966000
 5;100.8;  -48.460000;    1.918600;   73.958000
 5;103.2;  -93.179000;    1.382800;   73.326000
 5;105.6; -148.240000;    0.372750;   62.604000
 5;108.0; -143.360000;   -0.759790;   43.998000
 5;110.4; -128.390000;   -1.590200;   27.770000
 5;112.8; -118.740000;   -2.127900;   15.695000
 5;115.2; -114.020000;   -2.530100;    6.633400
 5;117.6; -113.210000;   -2.867300;   -1.057500
 5;120.0; -116.190000;   -3.262700;   -9.294200
 5;122.4; -123.330000;   -3.762000;  -19.078000
 5;124.8; -135.970000;   -4.431800;  -32.930000
 5;127.2; -145.850000;   -5.163000;  -51.215000
 5;129.6; -102.730000;   -5.513200;  -67.927000
 5;132.0;  -43.568000;   -5.218600;  -74.212000
 5;134.4;  -46.964000;   -4.864600;  -73.285000
 5;136.8;  -78.885000;   -4.927700;  -77.529000
 5;139.2;  -87.179000;   -5.235800;  -90.251000
 5;141.6;  -17.068000;   -5.025600; -100.100000
 5;144.0;   32.783000;   -4.224600;  -97.261000
 5;146.4;    7.870500;   -3.645500;  -91.239000
 5;148.8;  -22.577000;   -3.542400;  -93.922000
 5;151.2;   14.825000;   -3.301200; -100.890000
 5;153.6;   92.235000;   -2.443800;  -97.660000
 5;156.0;   92.931000;   -1.392300;  -84.219000
 5;158.4;   59.817000;   -0.824760;  -75.309000
 5;160.8;   48.315000;   -0.605200;  -75.154000
 5;163.2;  100.460000;    0.006811;  -74.245000
 5;165.6;  153.260000;    1.047500;  -62.192000
 5;168.0;  143.270000;    2.165500;  -42.784000
 5;170.4;  128.120000;    2.912600;  -26.956000
 5;172.8;  118.670000;    3.423100;  -15.104000
 5;175.2;  114.220000;    3.765100;   -6.113900
 5;177.6;  113.740000;    4.084800;    1.452400
 5;180.0;  117.060000;    4.472000;    9.756800
 5;182.4;  124.680000;    4.956700;   19.939000
 5;184.8;  137.700000;    5.614200;   34.247000
 5;187.2;  144.870000;    6.306100;   52.794000
 5;189.6;   94.555000;    6.553700;   68.712000
 5;192.0;   41.183000;    6.174700;   73.756000
 5;194.4;   49.637000;    5.778900;   72.854000
 5;196.8;   81.112000;    5.840100;   77.960000
 5;199.2;   82.227000;    6.052600;   90.804000
 5;201.6;    9.983500;    5.769200;   99.412000
 5;204.0;  -31.981000;    4.958900;   95.743000
 5;206.4;   -5.645000;    4.444700;   90.098000
 5;208.8;   19.883000;    4.308800;   93.070000
 5;211.2;  -22.231000;    3.984700;   99.073000
 5;213.6;  -92.500000;    3.108700;   94.791000
 5;216.0;  -88.781000;    2.127000;   81.687000
 5;218.4;  -58.406000;    1.615800;   73.614000
 5;220.8;  -52.480000;    1.320400;   73.321000
 5;223.2; -104.870000;    0.712540;   71.316000
 5;225.6; -149.060000;   -0.275480;   58.772000
 5;228.0; -139.330000;   -1.281800;   40.170000
 5;230.4; -125.470000;   -1.970700;   24.871000
 5;232.8; -116.820000;   -2.405400;   13.483000
 5;235.2; -112.770000;   -2.711900;    4.746900
 5;237.6; -112.440000;   -2.995400;   -2.876300
 5;240.0; -115.750000;   -3.321700;  -11.235000
 5;242.4; -123.060000;   -3.760500;  -21.338000
 5;244.8; -134.720000;   -4.313800;  -35.484000
 5;247.2; -137.980000;   -4.866100;  -53.200000
 5;249.6;  -91.486000;   -5.037500;  -67.930000
 5;252.0;  -44.593000;   -4.738400;  -72.947000
 5;254.4;  -51.722000;   -4.414300;  -72.854000
 5;256.8;  -78.235000;   -4.456900;  -78.193000
 5;259.2;  -74.371000;   -4.591300;  -90.055000
 5;261.6;  -10.157000;   -4.299700;  -97.639000
 5;264.0;   25.641000;   -3.601400;  -94.533000
 5;266.4;    3.809300;   -3.126000;  -89.985000
 5;268.8;  -15.643000;   -2.962100;  -92.868000
 5;271.2;   23.948000;   -2.631300;  -97.959000
 5;273.6;   85.837000;   -1.870300;  -93.793000
 5;276.0;   85.139000;   -1.021200;  -81.840000
 5;278.4;   59.397000;   -0.510350;  -74.136000
 5;280.8;   55.876000;   -0.196320;  -73.185000
 5;283.2;  102.890000;    0.346980;  -70.601000
 5;285.6;  143.360000;    1.165900;  -58.618000
 5;288.0;  137.150000;    2.145300;  -40.929000
 5;290.4;  124.670000;    2.780500;  -25.968000
 5;292.8;  116.490000;    3.233000;  -14.590000
 5;295.2;  112.580000;    3.552700;   -5.782800
 5;297.6;  112.200000;    3.839400;    1.893300
 5;300.0;  115.280000;    4.171400;   10.295000
 5;302.4;  122.040000;    4.572400;   20.307000
 5;304.8;  132.330000;    5.103800;   33.988000
 5;307.2;  134.550000;    5.622400;   51.032000
 5;309.6;   93.861000;    5.826700;   65.381000
 5;312.0;   48.986000;    5.622800;   71.077000
 5;314.4;   51.735000;    5.379400;   71.578000
 5;316.8;   74.855000;    5.397300;   76.484000
 5;319.2;   73.155000;    5.573900;   87.577000
 5;321.6;   15.985000;    5.331600;   95.299000
 5;324.0;  -22.005000;    4.743400;   93.233000
 5;326.4;   -5.953600;    4.258400;   88.812000
 5;328.8;   12.905000;    4.057900;   90.867000
 5;331.2;  -19.891000;    3.765900;   95.656000
 5;333.6;  -78.681000;    3.092200;   92.490000
 5;336.0;  -84.297000;    2.290900;   81.470000
 5;338.4;  -60.996000;    1.785700;   73.552000
 5;340.8;  -55.188000;    1.516100;   72.083000
 5;343.2;  -96.458000;    1.050500;   69.919000
 5;345.6; -139.310000;    0.202850;   59.017000
 5;348.0; -136.780000;   -0.727300;   41.833000
 5;350.4; -124.920000;   -1.440100;   26.875000
 5;352.8; -116.560000;   -1.912900;   15.208000
 5;355.2; -112.380000;   -2.288100;    6.182900
 5;357.6; -111.780000;   -2.601400;   -1.526800
 5;360.0; -114.560000;   -2.961400;   -9.796400
 6;  0.0; -125.600000;   -6.005000;  -22.491000
 6;  2.4; -137.960000;   -6.294800;  -36.789000
 6;  4.8; -142.340000;   -6.386600;  -54.279000
 6;  7.2;  -96.950000;   -6.112500;  -68.222000
 6;  9.6;  -49.533000;   -5.629400;  -72.528000
 6; 12.0;  -56.497000;   -5.274200;  -72.366000
 6; 14.4;  -83.879000;   -5.062200;  -78.035000
 6; 16.8;  -82.804000;   -4.705900;  -90.061000
 6; 19.2;  -17.150000;   -4.012500;  -97.243000
 6; 21.6;   21.101000;   -3.302300;  -93.618000
 6; 24.0;   -1.365400;   -2.677600;  -89.127000
 6; 26.4;  -24.006000;   -2.201100;  -92.516000
 6; 28.8;   15.797000;   -1.437500;  -97.809000
 6; 31.2;   82.640000;   -0.377050;  -93.081000
 6; 33.6;   82.864000;    0.537790;  -80.547000
 6; 36.0;   54.878000;    1.137100;  -73.219000
 6; 38.4;   48.795000;    1.737200;  -72.967000
 6; 40.8;   99.570000;    2.661000;  -70.419000
 6; 43.2;  145.510000;    3.745700;  -57.750000
 6; 45.6;  138.590000;    4.625100;  -39.453000
 6; 48.0;  125.680000;    5.247900;  -24.389000
 6; 50.4;  117.820000;    5.675500;  -13.421000
 6; 52.8;  114.430000;    6.018600;   -4.976800
 6; 55.2;  114.670000;    6.307300;    2.558500
 6; 57.6;  118.670000;    6.662000;   10.885000
 6; 60.0;  126.890000;    7.026800;   21.109000
 6; 62.4;  140.510000;    7.407700;   35.554000
 6; 64.8;  148.460000;    7.555200;   53.667000
 6; 67.2;  100.610000;    7.319900;   68.564000
 6; 69.6;   47.718000;    6.837500;   72.855000
 6; 72.0;   56.127000;    6.483500;   72.095000
 6; 74.4;   87.837000;    6.305000;   77.831000
 6; 76.8;   90.642000;    5.964500;   90.900000
 6; 79.2;   16.875000;    5.223300;   98.900000
 6; 81.6;  -25.977000;    4.345000;   94.510000
 6; 84.0;    1.192300;    3.815200;   89.193000
 6; 86.4;   29.060000;    3.335000;   92.971000
 6; 88.8;  -14.646000;    2.519800;   99.074000
 6; 91.2;  -89.101000;    1.390300;   93.967000
 6; 93.6;  -85.211000;    0.408970;   80.361000
 6; 96.0;  -52.659000;   -0.182500;   72.881000
 6; 98.4;  -45.023000;   -0.843800;   73.469000
 6;100.8; -101.790000;   -1.853900;   71.423000
 6;103.2; -151.770000;   -2.989000;   57.883000
 6;105.6; -140.850000;   -3.890800;   38.478000
 6;108.0; -126.850000;   -4.480400;   23.275000
 6;110.4; -118.600000;   -4.896400;   12.236000
 6;112.8; -115.140000;   -5.194700;    3.881100
 6;115.2; -115.460000;   -5.487500;   -3.553300
 6;117.6; -119.750000;   -5.827600;  -11.914000
 6;120.0; -128.690000;   -6.192800;  -22.378000
 6;122.4; -143.840000;   -6.552800;  -37.328000
 6;124.8; -153.570000;   -6.668900;  -55.994000
 6;127.2;  -97.936000;   -6.330600;  -71.406000
 6;129.6;  -42.437000;   -5.751500;  -74.849000
 6;132.0;  -55.526000;   -5.388900;  -73.262000
 6;134.4;  -90.967000;   -5.182400;  -79.188000
 6;136.8;  -93.371000;   -4.744400;  -93.062000
 6;139.2;  -12.652000;   -3.902000; -101.010000
 6;141.6;   29.126000;   -3.001300;  -95.687000
 6;144.0;   -3.507400;   -2.509900;  -90.228000
 6;146.4;  -32.950000;   -2.017800;  -94.806000
 6;148.8;   17.783000;   -1.106700; -101.230000
 6;151.2;   95.713000;    0.049379;  -95.203000
 6;153.6;   85.524000;    0.966090;  -80.777000
 6;156.0;   50.643000;    1.511600;  -73.549000
 6;158.4;   44.589000;    2.175900;  -74.644000
 6;160.8;  106.910000;    3.233800;  -72.296000
 6;163.2;  155.050000;    4.365600;  -57.772000
 6;165.6;  141.230000;    5.236700;  -38.094000
 6;168.0;  126.990000;    5.756500;  -23.030000
 6;170.4;  118.780000;    6.143700;  -12.015000
 6;172.8;  115.490000;    6.433100;   -3.753600
 6;175.2;  116.020000;    6.693400;    3.601700
 6;177.6;  120.600000;    7.001800;   12.173000
 6;180.0;  129.800000;    7.339400;   22.800000
 6;182.4;  145.180000;    7.626500;   38.004000
 6;184.8;  152.130000;    7.644800;   57.201000
 6;187.2;   91.592000;    7.228500;   71.639000
 6;189.6;   42.068000;    6.677300;   74.228000
 6;192.0;   58.699000;    6.328600;   72.970000
 6;194.4;   93.045000;    6.116100;   79.723000
 6;196.8;   87.286000;    5.634400;   93.435000
 6;199.2;    4.827100;    4.740100;  100.050000
 6;201.6;  -27.682000;    3.883100;   94.053000
 6;204.0;    5.645200;    3.336100;   89.114000
 6;206.4;   28.957000;    2.789000;   93.820000
 6;208.8;  -26.179000;    1.818200;   99.018000
 6;211.2;  -94.811000;    0.678560;   92.024000
 6;213.6;  -81.313000;   -0.200800;   78.336000
 6;216.0;  -49.464000;   -0.784060;   71.941000
 6;218.4;  -49.841000;   -1.444200;   72.751000
 6;220.8; -111.500000;   -2.478200;   69.218000
 6;223.2; -150.370000;   -3.527800;   54.517000
 6;225.6; -137.300000;   -4.331000;   35.567000
 6;228.0; -124.180000;   -4.823900;   21.075000
 6;230.4; -116.670000;   -5.166700;   10.591000
 6;232.8; -113.760000;   -5.418000;    2.400300
 6;235.2; -114.430000;   -5.658500;   -5.026700
 6;237.6; -118.960000;   -5.950100;  -13.549000
 6;240.0; -127.880000;   -6.275300;  -24.242000
 6;242.4; -141.790000;   -6.541200;  -39.287000
 6;244.8; -143.840000;   -6.528500;  -57.558000
 6;247.2;  -86.878000;   -6.149100;  -70.880000
 6;249.6;  -44.407000;   -5.619600;  -73.456000
 6;252.0;  -59.331000;   -5.253300;  -73.005000
 6;254.4;  -88.764000;   -4.990100;  -79.798000
 6;256.8;  -78.741000;   -4.484900;  -92.367000
 6;259.2;   -6.150100;   -3.641700;  -98.191000
 6;261.6;   22.349000;   -2.806400;  -93.129000
 6;264.0;   -5.879200;   -2.259000;  -89.160000
 6;266.4;  -23.737000;   -1.712300;  -93.517000
 6;268.8;   27.227000;   -0.805720;  -97.943000
 6;271.2;   88.579000;    0.269690;  -91.380000
 6;273.6;   79.176000;    1.148700;  -78.725000
 6;276.0;   51.556000;    1.742000;  -72.435000
 6;278.4;   53.182000;    2.420500;  -72.491000
 6;280.8;  108.660000;    3.380500;  -68.626000
 6;283.2;  145.640000;    4.378300;  -54.667000
 6;285.6;  135.870000;    5.177700;  -36.500000
 6;288.0;  123.820000;    5.693000;  -22.235000
 6;290.4;  116.660000;    6.059700;  -11.722000
 6;292.8;  113.700000;    6.320300;   -3.423600
 6;295.2;  114.260000;    6.553000;    4.048500
 6;297.6;  118.510000;    6.833800;   12.609000
 6;300.0;  126.760000;    7.125800;   23.153000
 6;302.4;  139.230000;    7.388300;   37.725000
 6;304.8;  140.820000;    7.409900;   55.217000
 6;307.2;   91.157000;    7.089900;   68.448000
 6;309.6;   48.426000;    6.591800;   71.915000
 6;312.0;   58.779000;    6.232600;   71.925000
 6;314.4;   85.432000;    5.969300;   78.476000
 6;316.8;   77.782000;    5.558200;   90.068000
 6;319.2;   12.360000;    4.829300;   96.195000
 6;321.6;  -20.039000;    4.000700;   91.985000
 6;324.0;    3.444600;    3.456300;   87.989000
 6;326.4;   21.348000;    2.889500;   91.536000
 6;328.8;  -22.012000;    2.155000;   95.946000
 6;331.2;  -82.640000;    1.123300;   90.396000
 6;333.6;  -79.239000;    0.237200;   78.408000
 6;336.0;  -53.416000;   -0.376670;   71.757000
 6;338.4;  -51.983000;   -1.025700;   71.422000
 6;340.8; -102.250000;   -1.986400;   68.108000
 6;343.2; -142.600000;   -3.008400;   55.091000
 6;345.6; -135.750000;   -3.859400;   37.281000
 6;348.0; -123.960000;   -4.418400;   22.864000
 6;350.4; -116.580000;   -4.817200;   12.085000
 6;352.8; -113.400000;   -5.129400;    3.667100
 6;355.2; -113.730000;   -5.393700;   -3.807200
 6;357.6; -117.700000;   -5.683900;  -12.217000
 6;360.0; -125.630000;   -6.015100;  -22.507000
 7;  0.0; -145.940000;  -10.755000;  -42.566000
 7;  2.4; -122.240000;  -10.615000;  -60.057000
 7;  4.8;  -58.725000;   -9.827600;  -69.095000
 7;  7.2;  -43.106000;   -8.635300;  -69.033000
 7;  9.6;  -68.830000;   -7.736100;  -70.624000
 7; 12.0;  -90.268000;   -7.117400;  -80.844000
 7; 14.4;  -42.388000;   -6.286900;  -93.000000
 7; 16.8;   25.418000;   -4.869500;  -94.334000
 7; 19.2;   21.705000;   -3.342600;  -87.821000
 7; 21.6;  -11.897000;   -2.238100;  -87.110000
 7; 24.0;   -5.122300;   -1.273200;  -94.096000
 7; 26.4;   71.212000;    0.141240;  -95.956000
 7; 28.8;  105.460000;    1.822300;  -85.595000
 7; 31.2;   76.853000;    3.259900;  -73.882000
 7; 33.6;   52.460000;    4.263600;  -71.146000
 7; 36.0;   78.178000;    5.301700;  -72.566000
 7; 38.4;  146.610000;    6.712000;  -65.721000
 7; 40.8;  155.180000;    8.138100;  -49.052000
 7; 43.2;  138.360000;    9.332200;  -31.569000
 7; 45.6;  126.990000;   10.059000;  -19.022000
 7; 48.0;  120.810000;   10.531000;   -9.831900
 7; 50.4;  118.660000;   10.831000;   -2.341600
 7; 52.8;  120.030000;   11.051000;    4.802300
 7; 55.2;  125.480000;   11.283000;   13.524000
 7; 57.6;  135.890000;   11.568000;   25.108000
 7; 60.0;  150.190000;   11.845000;   41.798000
 7; 62.4;  128.570000;   11.820000;   60.140000
 7; 64.8;   58.381000;   11.094000;   69.696000
 7; 67.2;   40.971000;    9.898700;   69.149000
 7; 69.6;   69.995000;    9.018600;   70.260000
 7; 72.0;   96.614000;    8.495800;   81.008000
 7; 74.4;   45.871000;    7.685100;   94.350000
 7; 76.8;  -30.159000;    6.211700;   95.697000
 7; 79.2;  -24.619000;    4.588500;   88.119000
 7; 81.6;   14.244000;    3.494800;   87.097000
 7; 84.0;    9.400400;    2.540000;   94.951000
 7; 86.4;  -74.912000;    1.071000;   97.211000
 7; 88.8; -110.930000;   -0.706020;   86.015000
 7; 91.2;  -76.835000;   -2.186900;   73.442000
 7; 93.6;  -49.122000;   -3.136900;   71.122000
 7; 96.0;  -77.497000;   -4.181300;   73.325000
 7; 98.4; -153.720000;   -5.706700;   66.245000
 7;100.8; -158.420000;   -7.264500;   48.527000
 7;103.2; -139.290000;   -8.470200;   30.477000
 7;105.6; -127.430000;   -9.203200;   17.898000
 7;108.0; -121.050000;   -9.649500;    8.732800
 7;110.4; -118.910000;   -9.919800;    1.323800
 7;112.8; -120.450000;  -10.135000;   -5.834100
 7;115.2; -126.310000;  -10.359000;  -14.634000
 7;117.6; -137.650000;  -10.651000;  -26.568000
 7;120.0; -153.920000;  -10.942000;  -44.036000
 7;122.4; -127.800000;  -10.853000;  -62.992000
 7;124.8;  -51.394000;   -9.971300;  -72.047000
 7;127.2;  -38.992000;   -8.689100;  -70.456000
 7;129.6;  -72.363000;   -7.833900;  -71.633000
 7;132.0; -100.390000;   -7.386200;  -83.377000
 7;134.4;  -39.923000;   -6.605100;  -96.928000
 7;136.8;   37.385000;   -5.084900;  -97.171000
 7;139.2;   23.091000;   -3.475900;  -88.915000
 7;141.6;  -18.653000;   -2.477800;  -88.697000
 7;144.0;   -6.748200;   -1.518900;  -97.362000
 7;146.4;   85.902000;    0.046765;  -98.612000
 7;148.8;  112.330000;    1.888400;  -85.975000
 7;151.2;   74.135000;    3.340200;  -73.644000
 7;153.6;   47.336000;    4.273300;  -72.218000
 7;156.0;   83.707000;    5.365500;  -74.421000
 7;158.4;  160.480000;    6.939100;  -65.967000
 7;160.8;  158.020000;    8.495100;  -47.490000
 7;163.2;  138.480000;    9.669400;  -29.623000
 7;165.6;  126.970000;   10.385000;  -17.405000
 7;168.0;  120.940000;   10.800000;   -8.498900
 7;170.4;  119.050000;   11.065000;   -1.238200
 7;172.8;  120.840000;   11.249000;    5.934200
 7;175.2;  127.040000;   11.469000;   14.905000
 7;177.6;  138.720000;   11.728000;   27.117000
 7;180.0;  154.450000;   11.959000;   44.777000
 7;182.4;  123.220000;   11.815000;   63.296000
 7;184.8;   49.026000;   10.887000;   71.594000
 7;187.2;   40.754000;    9.626900;   69.852000
 7;189.6;   74.252000;    8.790400;   71.559000
 7;192.0;   98.560000;    8.278100;   83.549000
 7;194.4;   33.675000;    7.405800;   96.316000
 7;196.8;  -37.838000;    5.847200;   95.739000
 7;199.2;  -21.380000;    4.240800;   87.579000
 7;201.6;   17.616000;    3.225900;   87.602000
 7;204.0;    1.695100;    2.242800;   95.601000
 7;206.4;  -86.545000;    0.689020;   96.007000
 7;208.8; -108.140000;   -1.079400;   83.551000
 7;211.2;  -72.452000;   -2.467400;   71.945000
 7;213.6;  -49.117000;   -3.422500;   70.554000
 7;216.0;  -86.146000;   -4.525600;   72.100000
 7;218.4; -156.390000;   -6.030000;   63.396000
 7;220.8; -154.380000;   -7.515400;   45.446000
 7;223.2; -136.380000;   -8.631200;   28.213000
 7;225.6; -125.490000;   -9.262600;   16.282000
 7;228.0; -119.680000;   -9.663300;    7.443800
 7;230.4; -117.870000;   -9.900800;    0.126160
 7;232.8; -119.620000;  -10.089000;   -7.032600
 7;235.2; -125.570000;  -10.257000;  -16.027000
 7;237.6; -136.490000;  -10.497000;  -28.095000
 7;240.0; -149.530000;  -10.653000;  -45.185000
 7;242.4; -117.700000;  -10.405000;  -62.849000
 7;244.8;  -51.152000;   -9.478800;  -70.708000
 7;247.2;  -43.087000;   -8.251000;  -69.623000
 7;249.6;  -72.816000;   -7.401900;  -71.771000
 7;252.0;  -91.654000;   -6.835500;  -83.051000
 7;254.4;  -31.706000;   -5.934800;  -94.703000
 7;256.8;   31.770000;   -4.450500;  -94.266000
 7;259.2;   18.115000;   -2.954700;  -87.337000
 7;261.6;  -15.364000;   -1.920300;  -87.771000
 7;264.0;    2.613300;   -0.926320;  -95.002000
 7;266.4;   82.485000;    0.555710;  -95.021000
 7;268.8;  103.490000;    2.221100;  -83.427000
 7;271.2;   72.488000;    3.597800;  -72.461000
 7;273.6;   52.581000;    4.607200;  -70.614000
 7;276.0;   86.778000;    5.766200;  -71.339000
 7;278.4;  149.940000;    7.268000;  -62.819000
 7;280.8;  151.150000;    8.692600;  -45.879000
 7;283.2;  135.080000;    9.794900;  -29.179000
 7;285.6;  124.690000;   10.464000;  -17.306000
 7;288.0;  119.080000;   10.874000;   -8.464900
 7;290.4;  117.300000;   11.129000;   -1.088500
 7;292.8;  118.920000;   11.290000;    6.127500
 7;295.2;  124.550000;   11.462000;   15.055000
 7;297.6;  134.680000;   11.630000;   26.909000
 7;300.0;  145.830000;   11.736000;   43.366000
 7;302.4;  116.860000;   11.483000;   60.437000
 7;304.8;   55.215000;   10.587000;   68.541000
 7;307.2;   44.747000;    9.381900;   68.191000
 7;309.6;   71.023000;    8.475600;   70.367000
 7;312.0;   88.774000;    7.855400;   80.985000
 7;314.4;   36.208000;    6.969700;   92.442000
 7;316.8;  -26.410000;    5.581400;   92.893000
 7;319.2;  -19.144000;    4.102300;   86.477000
 7;321.6;   11.931000;    2.964200;   86.200000
 7;324.0;   -0.623890;    2.011600;   92.788000
 7;326.4;  -74.746000;    0.572520;   93.497000
 7;328.8; -101.560000;   -1.071200;   83.021000
 7;331.2;  -73.906000;   -2.513700;   72.065000
 7;333.6;  -53.489000;   -3.518900;   69.713000
 7;336.0;  -82.542000;   -4.599900;   70.531000
 7;338.4; -145.250000;   -6.018400;   62.956000
 7;340.8; -151.110000;   -7.448200;   46.604000
 7;343.2; -135.730000;   -8.560200;   29.841000
 7;345.6; -125.190000;   -9.267500;   17.732000
 7;348.0; -119.370000;   -9.697300;    8.674700
 7;350.4; -117.350000;   -9.962400;    1.210000
 7;352.8; -118.750000;  -10.152000;   -5.958300
 7;355.2; -124.050000;  -10.347000;  -14.741000
 7;357.6; -133.910000;  -10.565000;  -26.320000
 7;360.0; -145.930000;  -10.754000;  -42.529000
