# *CALIBRATION************
# Voff:  -0.000557, -0.000502, 0.000355
# Oe*Vref/V:  18766.300781, 19118.269531, 18920.400390
# mV/Vref/Oe:  0.053287, 0.052306, 0.052853
# Hrel:  0.000000, 0.000000, 0.000000
# ADC Vref:  4.000000
# ADC Bits:  16
# ADC samples:  10
# ADC Speed:  4
# Linearization
# A0:  0.000000, 0.000000, 0.000000
# A1:  1.000000, 1.000000, 1.000000
# A2:  0.000000, 0.000000, 0.000000
# A3:  0.222500, 0.222500, 0.222500
# A4:  0.000000, 0.000000, 0.000000
# A5:  3.403000, 3.403000, 3.403000
# Orthogonalization
# 1.000000, 0.000000, 0.000000
# 0.000000, 1.000000, 0.000000
# 0.000000, 0.000000, 1.000000
# EEPROM Cal Valid, Valid, Valid
# EEPROM Lin Valid, Valid, Valid
# EEPROM Ortho Not Valid
# Sensor ID:   USB25103-1715507101             
# Software Version:  MDTUSBMAG3D.V9.20220510
# ************************
# 
# SENSOR_NB_SAMPLE: 10 
# SENSOR_GAIN: 1 
# SENSOR_READ_DELAY: 0.7 
# SENSOR_Oe_mT: 0.1 
# working dist: 2 mm
# Rotation step angle: 2.4°
# sensor pos #1: 0 mm
# sensor pos #2: 15 mm
# sensor pos #3: 30 mm
# sensor pos #4: 45 mm
# sensor pos #5: 60 mm
# sensor pos #6: 75 mm
# sensor pos #7: 90 mm
#
# ZPos#; a[°]; X1_magn[mT]; Y1_magn[mT]; Z1_magn[mT]
 1;  0.0;   23.434000;  -11.583000;   88.544000
 1;  2.4;  -26.223000;   -5.893400;   85.123000
 1;  4.8;   -5.633600;   -0.823270;   78.455000
 1;  7.2;   22.498000;    4.042900;   80.330000
 1;  9.6;  -10.106000;    9.492400;   87.212000
 1; 12.0;  -94.972000;   15.460000;   85.452000
 1; 14.4; -108.000000;   20.288000;   73.324000
 1; 16.8;  -78.868000;   24.261000;   63.508000
 1; 19.2;  -63.380000;   28.248000;   62.694000
 1; 21.6; -104.490000;   32.644000;   63.542000
 1; 24.0; -169.850000;   36.746000;   54.698000
 1; 26.4; -167.670000;   39.268000;   38.393000
 1; 28.8; -153.620000;   40.543000;   23.412000
 1; 31.2; -145.020000;   41.045000;   12.678000
 1; 33.6; -141.040000;   41.203000;    4.974200
 1; 36.0; -140.480000;   41.289000;   -1.737100
 1; 38.4; -143.210000;   41.296000;   -8.362900
 1; 40.8; -149.860000;   41.133000;  -16.742000
 1; 43.2; -161.480000;   40.520000;  -28.493000
 1; 45.6; -172.920000;   38.943000;  -44.128000
 1; 48.0; -132.980000;   35.660000;  -59.930000
 1; 50.4;  -68.622000;   31.332000;  -65.493000
 1; 52.8;  -67.037000;   27.097000;  -63.579000
 1; 55.2;  -96.625000;   23.458000;  -66.242000
 1; 57.6; -112.430000;   19.420000;  -77.650000
 1; 60.0;  -42.506000;   13.848000;  -88.947000
 1; 62.4;   24.303000;    7.777700;  -87.449000
 1; 64.8;   10.113000;    2.706100;  -80.128000
 1; 67.2;  -23.934000;   -2.106700;  -80.803000
 1; 69.6;   -3.269100;   -7.545300;  -88.562000
 1; 72.0;   88.178000;  -13.724000;  -88.991000
 1; 74.4;  114.540000;  -18.920000;  -76.961000
 1; 76.8;   82.851000;  -23.031000;  -65.723000
 1; 79.2;   59.865000;  -27.069000;  -64.464000
 1; 81.6;   94.543000;  -31.697000;  -66.779000
 1; 84.0;  174.640000;  -36.241000;  -59.291000
 1; 86.4;  176.280000;  -39.248000;  -42.176000
 1; 88.8;  159.620000;  -40.857000;  -25.764000
 1; 91.2;  149.820000;  -41.669000;  -14.331000
 1; 93.6;  145.360000;  -41.930000;   -6.414300
 1; 96.0;  144.630000;  -42.180000;    0.321280
 1; 98.4;  147.380000;  -42.327000;    6.865500
 1;100.8;  154.250000;  -42.378000;   15.038000
 1;103.2;  166.910000;  -41.885000;   26.648000
 1;105.6;  183.280000;  -40.269000;   42.820000
 1;108.0;  147.760000;  -36.519000;   60.308000
 1;110.4;   67.968000;  -31.323000;   66.782000
 1;112.8;   63.631000;  -26.463000;   63.797000
 1;115.2;   99.462000;  -22.493000;   65.607000
 1;117.6;  126.560000;  -18.504000;   78.048000
 1;120.0;   48.335000;  -12.770000;   91.729000
 1;122.4;  -34.728000;   -6.592700;   90.080000
 1;124.8;  -15.707000;   -1.322100;   80.797000
 1;127.2;   29.350000;    3.515300;   80.990000
 1;129.6;   11.623000;    9.251200;   90.662000
 1;132.0;  -97.250000;   15.770000;   92.045000
 1;134.4; -126.860000;   21.172000;   78.265000
 1;136.8;  -85.367000;   25.307000;   65.291000
 1;139.2;  -54.876000;   29.412000;   64.843000
 1;141.6;  -91.954000;   34.389000;   69.013000
 1;144.0; -192.990000;   39.276000;   61.360000
 1;146.4; -186.840000;   42.230000;   42.441000
 1;148.8; -166.610000;   43.580000;   25.080000
 1;151.2; -155.720000;   44.039000;   13.373000
 1;153.6; -150.990000;   44.204000;    5.473400
 1;156.0; -150.260000;   44.287000;   -1.203100
 1;158.4; -153.280000;   44.418000;   -7.779000
 1;160.8; -160.990000;   44.427000;  -16.167000
 1;163.2; -175.890000;   44.030000;  -28.431000
 1;165.6; -198.380000;   42.487000;  -46.389000
 1;168.0; -149.920000;   38.737000;  -65.506000
 1;170.4;  -58.105000;   33.583000;  -70.762000
 1;172.8;  -64.690000;   28.864000;  -65.655000
 1;175.2; -107.720000;   25.165000;  -67.493000
 1;177.6; -139.990000;   20.905000;  -81.941000
 1;180.0;  -36.501000;   14.573000;  -96.010000
 1;182.4;   46.518000;    7.949500;  -91.982000
 1;184.8;   11.050000;    2.461600;  -81.303000
 1;187.2;  -39.948000;   -2.488300;  -83.255000
 1;189.6;   -9.051900;   -8.485500;  -94.470000
 1;192.0;  119.670000;  -15.403000;  -94.175000
 1;194.4;  128.350000;  -20.756000;  -77.852000
 1;196.8;   81.410000;  -24.758000;  -65.548000
 1;199.2;   51.085000;  -28.989000;  -66.870000
 1;201.6;  106.980000;  -34.163000;  -71.021000
 1;204.0;  206.320000;  -39.023000;  -60.664000
 1;206.4;  186.800000;  -41.753000;  -40.318000
 1;208.8;  166.310000;  -42.895000;  -23.264000
 1;211.2;  156.020000;  -43.225000;  -12.247000
 1;213.6;  151.650000;  -43.290000;   -4.655700
 1;216.0;  151.240000;  -43.357000;    1.911800
 1;218.4;  154.680000;  -43.422000;    8.592300
 1;220.8;  163.230000;  -43.370000;   17.474000
 1;223.2;  179.620000;  -42.854000;   30.696000
 1;225.6;  201.250000;  -41.077000;   49.501000
 1;228.0;  129.600000;  -37.021000;   67.501000
 1;230.4;   52.080000;  -31.848000;   70.152000
 1;232.8;   70.225000;  -27.260000;   64.958000
 1;235.2;  113.240000;  -23.572000;   68.676000
 1;237.6;  131.480000;  -19.028000;   84.018000
 1;240.0;   16.623000;  -12.460000;   95.503000
 1;242.4;  -45.524000;   -6.019600;   89.276000
 1;244.8;   -4.059700;   -0.735140;   79.861000
 1;247.2;   38.936000;    4.214300;   83.540000
 1;249.6;  -11.620000;   10.222000;   93.339000
 1;252.0; -126.700000;   16.768000;   89.711000
 1;254.4; -117.790000;   21.723000;   73.603000
 1;256.8;  -75.604000;   25.636000;   63.442000
 1;259.2;  -56.881000;   29.909000;   65.222000
 1;261.6; -121.160000;   34.889000;   67.220000
 1;264.0; -195.540000;   39.225000;   55.303000
 1;266.4; -177.350000;   41.630000;   36.220000
 1;268.8; -160.050000;   42.682000;   20.612000
 1;271.2; -151.010000;   43.050000;   10.239000
 1;273.6; -147.190000;   43.188000;    2.893300
 1;276.0; -147.110000;   43.280000;   -3.688600
 1;278.4; -150.630000;   43.378000;  -10.458000
 1;280.8; -158.780000;   43.280000;  -19.423000
 1;283.2; -173.390000;   42.666000;  -32.380000
 1;285.6; -186.130000;   40.749000;  -49.922000
 1;288.0; -119.020000;   36.789000;  -65.569000
 1;290.4;  -57.667000;   31.940000;  -68.038000
 1;292.8;  -72.275000;   27.616000;  -64.649000
 1;295.2; -107.540000;   23.939000;  -68.999000
 1;297.6; -113.310000;   19.477000;  -82.494000
 1;300.0;  -17.827000;   13.311000;  -92.034000
 1;302.4;   33.041000;    7.221000;  -87.031000
 1;304.8;    2.105700;    2.109400;  -79.678000
 1;307.2;  -29.323000;   -2.848600;  -82.850000
 1;309.6;   17.070000;   -8.593800;  -90.502000
 1;312.0;  110.180000;  -14.910000;  -86.972000
 1;314.4;  109.490000;  -19.882000;  -73.047000
 1;316.8;   75.768000;  -23.844000;  -63.720000
 1;319.2;   62.342000;  -28.059000;  -64.183000
 1;321.6;  115.120000;  -32.729000;  -64.969000
 1;324.0;  179.400000;  -36.961000;  -54.435000
 1;326.4;  170.210000;  -39.422000;  -37.142000
 1;328.8;  155.260000;  -40.533000;  -22.253000
 1;331.2;  146.720000;  -40.947000;  -11.835000
 1;333.6;  142.890000;  -41.067000;   -4.334600
 1;336.0;  142.570000;  -41.085000;    2.340100
 1;338.4;  145.550000;  -41.025000;    9.172900
 1;340.8;  152.620000;  -40.793000;   17.922000
 1;343.2;  164.800000;  -40.044000;   30.348000
 1;345.6;  173.650000;  -38.139000;   46.486000
 1;348.0;  121.810000;  -34.479000;   61.397000
 1;350.4;   63.538000;  -29.905000;   65.312000
 1;352.8;   69.240000;  -25.680000;   63.177000
 1;355.2;   98.725000;  -21.983000;   66.878000
 1;357.6;  105.530000;  -17.685000;   78.738000
 1;360.0;   28.242000;  -11.953000;   88.309000
 2;  0.0;  -32.178000;    0.142360;   95.708000
 2;  2.4;   -2.968900;    1.562400;   87.849000
 2;  4.8;   34.671000;    2.733000;   90.370000
 2;  7.2;    1.156700;    3.581400;   98.135000
 2;  9.6;  -90.421000;    4.318500;   95.168000
 2; 12.0;  -95.859000;    5.281900;   80.970000
 2; 14.4;  -58.747000;    6.351700;   70.861000
 2; 16.8;  -40.034000;    7.265800;   70.981000
 2; 19.2;  -88.478000;    7.849100;   71.532000
 2; 21.6; -156.870000;    8.291600;   60.013000
 2; 24.0; -148.710000;    8.714600;   40.838000
 2; 26.4; -132.290000;    9.065600;   24.208000
 2; 28.8; -123.020000;    9.243000;   12.623000
 2; 31.2; -119.040000;    9.288600;    4.413600
 2; 33.6; -118.880000;    9.162300;   -2.798000
 2; 36.0; -122.360000;    8.884900;  -10.100000
 2; 38.4; -130.410000;    8.437900;  -19.413000
 2; 40.8; -144.850000;    7.831100;  -32.726000
 2; 43.2; -162.070000;    7.208700;  -50.666000
 2; 45.6; -123.030000;    6.551500;  -68.904000
 2; 48.0;  -51.168000;    5.708300;  -75.029000
 2; 50.4;  -50.918000;    4.580600;  -72.284000
 2; 52.8;  -88.449000;    3.380500;  -74.930000
 2; 55.2; -113.320000;    2.429100;  -87.865000
 2; 57.6;  -38.217000;    1.636700; -100.380000
 2; 60.0;   31.684000;    0.733830;  -97.863000
 2; 62.4;    8.194500;   -0.467790;  -89.283000
 2; 64.8;  -35.690000;   -1.655600;  -90.648000
 2; 67.2;  -14.940000;   -2.465500;  -99.520000
 2; 69.6;   84.486000;   -3.124900;  -98.850000
 2; 72.0;  102.600000;   -3.957600;  -84.623000
 2; 74.4;   61.922000;   -5.003200;  -72.967000
 2; 76.8;   34.494000;   -5.952000;  -72.906000
 2; 79.2;   78.135000;   -6.491200;  -75.187000
 2; 81.6;  162.250000;   -6.853000;  -64.927000
 2; 84.0;  155.770000;   -7.241400;  -44.771000
 2; 86.4;  136.500000;   -7.553100;  -26.714000
 2; 88.8;  126.020000;   -7.734200;  -14.492000
 2; 91.2;  121.500000;   -7.795100;   -6.069500
 2; 93.6;  121.070000;   -7.689100;    1.171600
 2; 96.0;  124.490000;   -7.437400;    8.349900
 2; 98.4;  132.680000;   -6.987400;   17.485000
 2;100.8;  148.200000;   -6.394100;   30.795000
 2;103.2;  171.000000;   -5.787300;   49.482000
 2;105.6;  137.300000;   -5.170800;   69.940000
 2;108.0;   47.714000;   -4.381400;   77.158000
 2;110.4;   45.192000;   -3.244000;   72.927000
 2;112.8;   89.476000;   -2.038300;   74.345000
 2;115.2;  126.670000;   -1.111200;   88.376000
 2;117.6;   43.045000;   -0.457330;  103.100000
 2;120.0;  -42.791000;    0.349220;  100.320000
 2;122.4;  -12.756000;    1.560900;   89.626000
 2;124.8;   42.385000;    2.770000;   90.728000
 2;127.2;   25.920000;    3.500000;  101.640000
 2;129.6;  -93.818000;    4.064600;  101.950000
 2;132.0; -112.560000;    4.897300;   85.670000
 2;134.4;  -62.566000;    5.982400;   72.499000
 2;136.8;  -26.571000;    6.892800;   73.274000
 2;139.2;  -75.149000;    7.287500;   77.241000
 2;141.6; -177.010000;    7.468600;   66.394000
 2;144.0; -160.580000;    7.740000;   44.354000
 2;146.4; -138.160000;    8.023400;   25.406000
 2;148.8; -127.050000;    8.219100;   13.136000
 2;151.2; -122.350000;    8.238900;    4.839600
 2;153.6; -121.990000;    8.137000;   -2.234100
 2;156.0; -125.680000;    7.872200;   -9.301900
 2;158.4; -134.560000;    7.430100;  -18.570000
 2;160.8; -151.880000;    6.902500;  -32.299000
 2;163.2; -180.570000;    6.436100;  -52.377000
 2;165.6; -136.080000;    6.086200;  -74.222000
 2;168.0;  -36.780000;    5.486900;  -80.227000
 2;170.4;  -44.780000;    4.399900;  -74.190000
 2;172.8;  -96.676000;    3.202800;  -76.036000
 2;175.2; -139.710000;    2.362200;  -92.223000
 2;177.6;  -29.459000;    1.832800; -107.520000
 2;180.0;   55.304000;    1.016100; -102.160000
 2;182.4;    8.226700;   -0.304980;  -90.272000
 2;184.8;  -53.628000;   -1.503600;  -93.158000
 2;187.2;  -20.909000;   -2.172000; -105.670000
 2;189.6;  115.080000;   -2.689500; -103.860000
 2;192.0;  111.890000;   -3.591300;  -85.155000
 2;194.4;   56.509000;   -4.701400;  -72.611000
 2;196.8;   21.903000;   -5.491900;  -75.244000
 2;199.2;   87.561000;   -5.794800;  -79.071000
 2;201.6;  187.090000;   -6.062100;  -65.491000
 2;204.0;  159.140000;   -6.496400;  -42.170000
 2;206.4;  137.250000;   -6.888900;  -23.753000
 2;208.8;  126.820000;   -7.115900;  -12.094000
 2;211.2;  122.640000;   -7.156600;   -4.104700
 2;213.6;  122.780000;   -7.068100;    2.907700
 2;216.0;  126.960000;   -6.804100;   10.113000
 2;218.4;  136.830000;   -6.380300;   19.876000
 2;220.8;  155.840000;   -5.897800;   34.557000
 2;223.2;  184.530000;   -5.483700;   55.565000
 2;225.6;  116.080000;   -5.157400;   76.161000
 2;228.0;   30.587000;   -4.516200;   79.453000
 2;230.4;   51.257000;   -3.380300;   73.322000
 2;232.8;  102.980000;   -2.233600;   77.164000
 2;235.2;  132.750000;   -1.507300;   94.251000
 2;237.6;   11.780000;   -0.950970;  106.910000
 2;240.0;  -52.560000;   -0.012233;   99.467000
 2;242.4;   -0.834650;    1.350700;   88.922000
 2;244.8;   52.961000;    2.476500;   93.381000
 2;247.2;    2.310900;    3.109100;  104.280000
 2;249.6; -119.540000;    3.652400;   99.521000
 2;252.0; -102.410000;    4.752800;   81.308000
 2;254.4;  -52.485000;    5.908500;   70.931000
 2;256.8;  -30.585000;    6.732600;   73.701000
 2;259.2; -102.930000;    7.158300;   75.124000
 2;261.6; -177.110000;    7.539900;   60.221000
 2;264.0; -152.660000;    8.043200;   38.315000
 2;266.4; -133.860000;    8.436400;   21.317000
 2;268.8; -124.590000;    8.673200;   10.235000
 2;271.2; -120.980000;    8.719500;    2.390700
 2;273.6; -121.390000;    8.648900;   -4.632400
 2;276.0; -125.770000;    8.419600;  -12.029000
 2;278.4; -135.510000;    7.990200;  -22.031000
 2;280.8; -153.310000;    7.508100;  -36.754000
 2;283.2; -173.060000;    7.055200;  -56.697000
 2;285.6; -104.630000;    6.586900;  -74.608000
 2;288.0;  -37.361000;    5.829700;  -77.262000
 2;290.4;  -56.492000;    4.701200;  -73.040000
 2;292.8; -100.460000;    3.568000;  -77.904000
 2;295.2; -114.050000;    2.786400;  -93.271000
 2;297.6;  -11.082000;    2.058700; -103.500000
 2;300.0;   39.100000;    1.044100;  -97.087000
 2;302.4;   -2.621500;   -0.282200;  -88.860000
 2;304.8;  -43.092000;   -1.423000;  -93.176000
 2;307.2;    6.596800;   -2.191000; -101.740000
 2;309.6;  105.640000;   -2.968800;  -96.577000
 2;312.0;   95.173000;   -4.014000;  -80.715000
 2;314.4;   53.566000;   -5.174200;  -71.330000
 2;316.8;   39.220000;   -6.011700;  -72.813000
 2;319.2;  100.990000;   -6.521000;  -72.779000
 2;321.6;  164.210000;   -6.944100;  -59.042000
 2;324.0;  148.400000;   -7.401900;  -39.027000
 2;326.4;  131.820000;   -7.751400;  -22.720000
 2;328.8;  123.040000;   -7.943400;  -11.637000
 2;331.2;  119.480000;   -8.009500;   -3.681200
 2;333.6;  119.740000;   -7.884700;    3.493000
 2;336.0;  123.710000;   -7.635300;   10.943000
 2;338.4;  132.420000;   -7.227900;   20.713000
 2;340.8;  147.650000;   -6.688300;   34.619000
 2;343.2;  163.120000;   -6.156600;   53.094000
 2;345.6;  111.520000;   -5.588700;   70.351000
 2;348.0;   46.437000;   -4.769400;   74.739000
 2;350.4;   54.416000;   -3.636100;   71.834000
 2;352.8;   91.976000;   -2.532300;   75.672000
 2;355.2;  107.870000;   -1.542100;   89.103000
 2;357.6;   24.988000;   -0.718710;   99.806000
 2;360.0;  -32.104000;    0.304040;   95.736000
 3;  0.0;   13.423000;    5.106400;   90.889000
 3;  2.4;   29.954000;    5.935400;   98.937000
 3;  4.8;  -54.587000;    6.203500;  104.510000
 3;  7.2; -119.900000;    5.619100;   93.875000
 3;  9.6;  -82.914000;    5.090300;   78.784000
 3; 12.0;  -43.209000;    5.419300;   74.034000
 3; 14.4;  -55.335000;    5.907300;   77.491000
 3; 16.8; -141.920000;    5.703100;   73.631000
 3; 19.2; -165.490000;    4.764400;   55.329000
 3; 21.6; -142.490000;    3.930500;   35.401000
 3; 24.0; -127.280000;    3.395800;   20.509000
 3; 26.4; -119.350000;    3.075100;   10.191000
 3; 28.8; -116.390000;    2.794600;    2.417700
 3; 31.2; -117.380000;    2.370800;   -4.983500
 3; 33.6; -122.530000;    1.988100;  -13.104000
 3; 36.0; -133.800000;    1.181900;  -24.758000
 3; 38.4; -152.870000;    0.015772;  -41.356000
 3; 40.8; -155.950000;   -1.293800;  -61.947000
 3; 43.2;  -70.802000;   -2.058100;  -76.587000
 3; 45.6;  -26.696000;   -1.975200;  -76.927000
 3; 48.0;  -58.241000;   -2.116000;  -74.305000
 3; 50.4; -101.860000;   -3.089500;  -82.523000
 3; 52.8;  -84.866000;   -4.216400;  -98.920000
 3; 55.2;   22.233000;   -4.442700; -105.610000
 3; 57.6;   42.584000;   -4.004700;  -97.125000
 3; 60.0;   -9.199600;   -4.164500;  -91.459000
 3; 62.4;  -38.641000;   -5.043100;  -99.096000
 3; 64.8;   39.493000;   -5.455000; -106.890000
 3; 67.2;  125.310000;   -4.851600;  -97.857000
 3; 69.6;   89.179000;   -4.207100;  -81.518000
 3; 72.0;   44.165000;   -4.442700;  -75.402000
 3; 74.4;   44.332000;   -4.856800;  -79.531000
 3; 76.8;  134.690000;   -4.608100;  -77.849000
 3; 79.2;  173.630000;   -3.489700;  -59.929000
 3; 81.6;  147.010000;   -2.433800;  -38.621000
 3; 84.0;  129.730000;   -1.749700;  -22.692000
 3; 86.4;  120.920000;   -1.358700;  -11.998000
 3; 88.8;  117.490000;   -1.073400;   -4.139100
 3; 91.2;  118.230000;   -0.726180;    3.171500
 3; 93.6;  123.230000;   -0.226940;   11.098000
 3; 96.0;  134.400000;    0.580730;   22.144000
 3; 98.4;  155.710000;    1.823800;   38.921000
 3;100.8;  170.640000;    3.256200;   61.170000
 3;103.2;   71.109000;    4.039900;   78.237000
 3;105.6;   18.636000;    3.742300;   78.059000
 3;108.0;   55.500000;    3.663600;   73.788000
 3;110.4;  107.420000;    4.637400;   81.845000
 3;112.8;   99.951000;    5.940600;  100.280000
 3;115.2;  -27.814000;    6.141100;  108.500000
 3;117.6;  -53.357000;    5.456300;   98.469000
 3;120.0;    9.063900;    5.517900;   91.178000
 3;122.4;   51.239000;    6.527200;   99.898000
 3;124.8;  -36.359000;    6.992100;  109.840000
 3;127.2; -142.240000;    6.117200;  100.040000
 3;129.6;  -94.101000;    5.267300;   81.452000
 3;132.0;  -40.694000;    5.422700;   74.843000
 3;134.4;  -35.980000;    6.053000;   80.719000
 3;136.8; -142.830000;    5.807300;   80.141000
 3;139.2; -183.480000;    4.538100;   60.476000
 3;141.6; -149.790000;    3.385400;   37.417000
 3;144.0; -131.540000;    2.751000;   21.409000
 3;146.4; -122.350000;    2.392500;   10.736000
 3;148.8; -118.940000;    2.134100;    2.939800
 3;151.2; -119.890000;    1.795400;   -4.193400
 3;153.6; -125.300000;    1.299900;  -12.059000
 3;156.0; -137.560000;    0.461620;  -23.392000
 3;158.4; -162.240000;   -0.882640;  -41.043000
 3;160.8; -182.590000;   -2.489000;  -65.035000
 3;163.2;  -58.372000;   -3.254500;  -82.383000
 3;165.6;  -10.281000;   -2.825100;  -79.959000
 3;168.0;  -59.243000;   -2.746300;  -74.702000
 3;170.4; -118.750000;   -3.821000;  -84.434000
 3;172.8;  -99.232000;   -5.149900; -104.920000
 3;175.2;   45.374000;   -5.092800; -111.840000
 3;177.6;   55.037000;   -4.241000;  -99.185000
 3;180.0;  -16.696000;   -4.412400;  -92.384000
 3;182.4;  -58.649000;   -5.536400; -103.430000
 3;184.8;   52.788000;   -5.842900; -113.410000
 3;187.2;  152.320000;   -4.756700; -100.500000
 3;189.6;   90.814000;   -3.918800;  -80.889000
 3;192.0;   33.792000;   -4.196200;  -75.792000
 3;194.4;   39.149000;   -4.840700;  -83.021000
 3;196.8;  164.430000;   -4.422100;  -80.860000
 3;199.2;  183.500000;   -3.020000;  -58.799000
 3;201.6;  148.580000;   -1.907300;  -35.694000
 3;204.0;  130.660000;   -1.297100;  -19.999000
 3;206.4;  122.140000;   -1.004700;   -9.865900
 3;208.8;  119.150000;   -0.740370;   -2.384100
 3;211.2;  120.520000;   -0.417750;    4.760600
 3;213.6;  126.550000;    0.078878;   12.857000
 3;216.0;  140.000000;    0.928740;   24.749000
 3;218.4;  166.700000;    2.230800;   43.391000
 3;220.8;  175.690000;    3.677700;   67.686000
 3;223.2;   47.497000;    4.148200;   82.716000
 3;225.6;   13.719000;    3.645300;   78.826000
 3;228.0;   65.994000;    3.696000;   74.749000
 3;230.4;  124.220000;    4.842000;   86.264000
 3;232.8;   79.137000;    6.017900;  106.180000
 3;235.2;  -54.300000;    5.774000;  110.010000
 3;237.6;  -46.551000;    5.004800;   96.938000
 3;240.0;   22.286000;    5.264300;   91.899000
 3;242.4;   47.173000;    6.209100;  103.170000
 3;244.8;  -68.984000;    6.354700;  110.540000
 3;247.2; -141.030000;    5.312900;   96.206000
 3;249.6;  -83.474000;    4.697100;   78.387000
 3;252.0;  -32.906000;    5.037300;   74.822000
 3;254.4;  -52.092000;    5.553700;   80.902000
 3;256.8; -168.600000;    5.097100;   76.296000
 3;259.2; -174.110000;    3.923400;   54.324000
 3;261.6; -144.290000;    3.031000;   32.804000
 3;264.0; -128.380000;    2.527700;   18.077000
 3;266.4; -120.640000;    2.183800;    8.196200
 3;268.8; -118.070000;    2.073600;    0.790220
 3;271.2; -119.670000;    1.757300;   -6.486400
 3;273.6; -125.770000;    1.287600;  -14.801000
 3;276.0; -138.870000;    0.504930;  -26.921000
 3;278.4; -162.630000;   -0.677640;  -45.231000
 3;280.8; -157.070000;   -1.880700;  -67.641000
 3;283.2;  -48.991000;   -2.288900;  -80.667000
 3;285.6;  -23.241000;   -2.026400;  -77.747000
 3;288.0;  -67.774000;   -2.249300;  -75.506000
 3;290.4; -114.810000;   -3.334400;  -86.778000
 3;292.8;  -66.083000;   -4.352700; -103.870000
 3;295.2;   44.387000;   -4.204400; -106.680000
 3;297.6;   36.744000;   -3.679800;  -95.925000
 3;300.0;  -20.835000;   -3.986700;  -92.419000
 3;302.4;  -33.111000;   -4.859800; -102.240000
 3;304.8;   68.194000;   -4.992700; -107.530000
 3;307.2;  126.520000;   -4.242200;  -94.612000
 3;309.6;   80.608000;   -3.800000;  -78.838000
 3;312.0;   38.759000;   -4.119300;  -75.156000
 3;314.4;   58.764000;   -4.593900;  -79.333000
 3;316.8;  155.020000;   -4.293300;  -74.199000
 3;319.2;  166.700000;   -3.304200;  -54.215000
 3;321.6;  141.900000;   -2.504700;  -34.063000
 3;324.0;  126.950000;   -2.042800;  -19.511000
 3;326.4;  119.480000;   -1.733300;   -9.513000
 3;328.8;  116.890000;   -1.496500;   -1.917800
 3;331.2;  118.300000;   -1.177600;    5.493400
 3;333.6;  124.020000;   -0.690330;   13.913000
 3;336.0;  135.870000;    0.091200;   25.714000
 3;338.4;  155.860000;    1.158800;   43.090000
 3;340.8;  150.310000;    2.470900;   64.117000
 3;343.2;   58.852000;    3.040700;   77.237000
 3;345.6;   28.194000;    2.948900;   76.074000
 3;348.0;   64.101000;    3.171800;   74.358000
 3;350.4;  105.170000;    4.168000;   84.233000
 3;352.8;   70.102000;    5.202400;   99.950000
 3;355.2;  -31.275000;    5.278200;  104.110000
 3;357.6;  -36.487000;    4.870800;   95.047000
 3;360.0;   13.584000;    5.119500;   90.909000
 4;  0.0;   36.798000;    3.321500;  103.550000
 4;  2.4;  -67.498000;    2.886100;  107.080000
 4;  4.8; -118.170000;    2.436500;   92.642000
 4;  7.2;  -71.870000;    2.324200;   77.769000
 4;  9.6;  -30.018000;    2.274100;   75.453000
 4; 12.0;  -55.646000;    1.900300;   79.721000
 4; 14.4; -153.910000;    1.258100;   73.147000
 4; 16.8; -163.510000;    0.672220;   51.972000
 4; 19.2; -139.120000;    0.322710;   31.760000
 4; 21.6; -125.150000;    0.091947;   17.665000
 4; 24.0; -118.450000;   -0.128360;    7.972200
 4; 26.4; -116.530000;   -0.356510;    0.460590
 4; 28.8; -118.770000;   -0.670920;   -7.012600
 4; 31.2; -125.550000;   -1.029400;  -15.663000
 4; 33.6; -139.250000;   -1.512200;  -28.041000
 4; 36.0; -163.310000;   -1.969200;  -46.408000
 4; 38.4; -163.100000;   -2.163800;  -68.457000
 4; 40.8;  -58.007000;   -2.077900;  -81.338000
 4; 43.2;  -28.096000;   -2.040600;  -78.542000
 4; 45.6;  -70.415000;   -2.309800;  -76.403000
 4; 48.0; -119.980000;   -2.627200;  -87.640000
 4; 50.4;  -83.241000;   -2.611500; -105.080000
 4; 52.8;   33.773000;   -2.316900; -108.380000
 4; 55.2;   34.316000;   -2.223900;  -97.319000
 4; 57.6;  -25.611000;   -2.432300;  -93.462000
 4; 60.0;  -49.149000;   -2.509600; -103.830000
 4; 62.4;   51.854000;   -2.075700; -110.040000
 4; 64.8;  126.730000;   -1.548000;  -96.832000
 4; 67.2;   78.281000;   -1.363600;  -80.085000
 4; 69.6;   30.168000;   -1.303800;  -76.423000
 4; 72.0;   43.832000;   -0.936780;  -81.755000
 4; 74.4;  149.930000;   -0.163830;  -77.176000
 4; 76.8;  170.410000;    0.580730;  -55.894000
 4; 79.2;  142.380000;    1.037400;  -34.482000
 4; 81.6;  126.730000;    1.340600;  -19.539000
 4; 84.0;  119.260000;    1.574000;   -9.579100
 4; 86.4;  116.950000;    1.840600;   -2.075900
 4; 88.8;  118.970000;    2.141900;    5.272700
 4; 91.2;  125.610000;    2.532500;   13.736000
 4; 93.6;  139.450000;    3.026200;   25.755000
 4; 96.0;  165.950000;    3.488100;   44.350000
 4; 98.4;  178.660000;    3.671800;   68.047000
 4;100.8;   59.016000;    3.485100;   82.650000
 4;103.2;   20.554000;    3.383500;   79.192000
 4;105.6;   69.529000;    3.599700;   75.529000
 4;108.0;  128.100000;    3.992200;   87.049000
 4;110.4;   97.132000;    3.987700;  106.970000
 4;112.8;  -42.602000;    3.572100;  111.030000
 4;115.2;  -42.000000;    3.427600;   97.970000
 4;117.6;   28.168000;    3.666900;   93.012000
 4;120.0;   62.343000;    3.700900;  105.050000
 4;122.4;  -52.919000;    3.116900;  112.810000
 4;124.8; -140.470000;    2.433600;   98.095000
 4;127.2;  -79.710000;    2.219600;   79.402000
 4;129.6;  -23.398000;    2.231200;   76.165000
 4;132.0;  -36.431000;    1.860800;   83.441000
 4;134.4; -162.730000;    0.995580;   79.214000
 4;136.8; -177.110000;    0.170360;   55.872000
 4;139.2; -144.370000;   -0.287800;   33.244000
 4;141.6; -127.620000;   -0.583170;   17.967000
 4;144.0; -120.060000;   -0.815420;    8.179900
 4;146.4; -117.890000;   -1.061900;    0.960210
 4;148.8; -120.100000;   -1.359500;   -6.361500
 4;151.2; -127.300000;   -1.762000;  -14.786000
 4;153.6; -142.350000;   -2.291500;  -27.066000
 4;156.0; -173.360000;   -2.784000;  -46.908000
 4;158.4; -187.990000;   -2.863900;  -72.456000
 4;160.8;  -44.979000;   -2.559200;  -86.440000
 4;163.2;  -14.817000;   -2.399800;  -80.556000
 4;165.6;  -73.865000;   -2.673500;  -76.386000
 4;168.0; -140.480000;   -2.983800;  -89.703000
 4;170.4;  -90.518000;   -2.764200; -111.250000
 4;172.8;   58.330000;   -2.180200; -113.520000
 4;175.2;   41.261000;   -2.007000;  -98.399000
 4;177.6;  -37.138000;   -2.242900;  -94.342000
 4;180.0;  -67.363000;   -2.151500; -108.440000
 4;182.4;   69.771000;   -1.402800; -115.720000
 4;184.8;  145.160000;   -0.720950;  -98.115000
 4;187.2;   75.783000;   -0.584660;  -79.007000
 4;189.6;   15.993000;   -0.593620;  -77.349000
 4;192.0;   40.807000;   -0.131350;  -85.558000
 4;194.4;  182.520000;    0.750630;  -79.525000
 4;196.8;  175.840000;    1.448500;  -54.166000
 4;199.2;  143.320000;    1.792400;  -31.932000
 4;201.6;  127.200000;    1.996300;  -17.076000
 4;204.0;  120.060000;    2.181500;   -7.559500
 4;206.4;  118.300000;    2.402200;   -0.484320
 4;208.8;  121.040000;    2.699800;    6.936000
 4;211.2;  128.700000;    3.070600;   15.414000
 4;213.6;  145.080000;    3.551500;   28.477000
 4;216.0;  178.430000;    3.948800;   49.306000
 4;218.4;  177.990000;    3.942900;   74.366000
 4;220.8;   35.672000;    3.604600;   86.242000
 4;223.2;   20.571000;    3.527300;   79.392000
 4;225.6;   80.633000;    3.826700;   76.822000
 4;228.0;  145.390000;    4.046300;   91.806000
 4;230.4;   67.145000;    3.713200;  111.980000
 4;232.8;  -64.775000;    3.127300;  111.060000
 4;235.2;  -31.902000;    3.038100;   96.123000
 4;237.6;   42.654000;    3.258400;   94.187000
 4;240.0;   52.230000;    3.098200;  107.950000
 4;242.4;  -85.425000;    2.370800;  112.340000
 4;244.8; -132.940000;    1.772600;   93.853000
 4;247.2;  -69.798000;    1.670700;   76.976000
 4;249.6;  -17.286000;    1.626600;   76.427000
 4;252.0;  -54.912000;    1.106100;   83.019000
 4;254.4; -181.200000;    0.273790;   74.879000
 4;256.8; -167.760000;   -0.352030;   50.091000
 4;259.2; -139.490000;   -0.651500;   29.156000
 4;261.6; -125.160000;   -0.817290;   15.313000
 4;264.0; -118.720000;   -0.980840;    6.094600
 4;266.4; -117.300000;   -1.179100;   -1.035300
 4;268.8; -120.140000;   -1.452500;   -8.452400
 4;271.2; -128.000000;   -1.803100;  -17.421000
 4;273.6; -143.920000;   -2.216100;  -30.544000
 4;276.0; -173.550000;   -2.528200;  -50.831000
 4;278.4; -157.550000;   -2.478600;  -73.905000
 4;280.8;  -39.102000;   -2.183200;  -84.066000
 4;283.2;  -28.537000;   -2.107400;  -78.670000
 4;285.6;  -80.652000;   -2.346400;  -77.690000
 4;288.0; -132.680000;   -2.492400;  -91.896000
 4;290.4;  -58.321000;   -2.203400; -109.290000
 4;292.8;   52.254000;   -1.797500; -108.220000
 4;295.2;   25.473000;   -1.778800;  -95.945000
 4;297.6;  -38.121000;   -1.978600;  -94.818000
 4;300.0;  -38.359000;   -1.849800; -106.750000
 4;302.4;   80.644000;   -1.314700; -109.700000
 4;304.8;  122.130000;   -0.890100;  -93.262000
 4;307.2;   68.646000;   -0.832970;  -77.940000
 4;309.6;   25.421000;   -0.806840;  -76.843000
 4;312.0;   60.999000;   -0.404680;  -81.528000
 4;314.4;  167.260000;    0.281640;  -73.170000
 4;316.8;  163.870000;    0.804400;  -50.918000
 4;319.2;  138.400000;    1.097900;  -30.484000
 4;321.6;  124.800000;    1.317500;  -16.692000
 4;324.0;  118.560000;    1.514600;   -7.388400
 4;326.4;  117.000000;    1.718100;    0.000517
 4;328.8;  119.700000;    2.006800;    7.613400
 4;331.2;  127.050000;    2.339800;   16.496000
 4;333.6;  141.740000;    2.795400;   29.479000
 4;336.0;  166.830000;    3.169200;   48.797000
 4;338.4;  153.320000;    3.253900;   70.485000
 4;340.8;   48.711000;    3.104900;   81.197000
 4;343.2;   31.537000;    3.101600;   77.471000
 4;345.6;   75.909000;    3.330900;   76.573000
 4;348.0;  121.860000;    3.569100;   89.164000
 4;350.4;   65.696000;    3.446600;  105.590000
 4;352.8;  -39.335000;    3.150900;  106.470000
 4;355.2;  -27.374000;    3.096700;   95.363000
 4;357.6;   29.731000;    3.311800;   93.196000
 4;360.0;   37.901000;    3.312900;  103.350000
 5;  0.0; -131.650000;    3.267400;  105.340000
 5;  2.4; -107.610000;    2.182300;   86.054000
 5;  4.8;  -53.976000;    1.780500;   75.703000
 5;  7.2;  -27.677000;    1.764000;   79.222000
 5;  9.6; -107.080000;    1.298800;   81.961000
 5; 12.0; -187.310000;    0.206960;   67.413000
 5; 14.4; -156.090000;   -0.913630;   43.554000
 5; 16.8; -134.400000;   -1.651500;   25.641000
 5; 19.2; -123.050000;   -2.088000;   13.718000
 5; 21.6; -117.980000;   -2.408400;    5.188500
 5; 24.0; -117.420000;   -2.703700;   -1.897400
 5; 26.4; -121.250000;   -3.047600;   -9.623800
 5; 28.8; -130.490000;   -3.544600;  -19.409000
 5; 31.2; -149.160000;   -4.265300;  -34.387000
 5; 33.6; -177.650000;   -5.112900;  -56.599000
 5; 36.0; -107.290000;   -5.525500;  -77.592000
 5; 38.4;  -18.523000;   -5.120400;  -81.984000
 5; 40.8;  -38.573000;   -4.629700;  -76.094000
 5; 43.2;  -92.534000;   -4.814200;  -79.427000
 5; 45.6; -127.380000;   -5.333200;  -97.291000
 5; 48.0;   -7.432200;   -5.191400; -111.410000
 5; 50.4;   67.648000;   -4.207400; -104.750000
 5; 52.8;   12.048000;   -3.604800;  -93.663000
 5; 55.2;  -50.949000;   -3.733600;  -97.915000
 5; 57.6;   -4.316700;   -3.700300; -111.270000
 5; 60.0;  132.310000;   -2.772100; -108.660000
 5; 62.4;  115.030000;   -1.589100;  -88.714000
 5; 64.8;   57.484000;   -1.110800;  -76.766000
 5; 67.2;   22.060000;   -1.107800;  -80.104000
 5; 69.6;   95.611000;   -0.621630;  -84.483000
 5; 72.0;  194.760000;    0.551980;  -70.941000
 5; 74.4;  160.210000;    1.793200;  -46.124000
 5; 76.8;  136.430000;    2.584800;  -27.457000
 5; 79.2;  124.220000;    3.081000;  -15.135000
 5; 81.6;  118.790000;    3.420100;   -6.603500
 5; 84.0;  117.980000;    3.725500;    0.400360
 5; 86.4;  121.630000;    4.079200;    7.961500
 5; 88.8;  130.800000;    4.606000;   17.440000
 5; 91.2;  150.020000;    5.385300;   32.204000
 5; 93.6;  185.220000;    6.372600;   54.923000
 5; 96.0;  118.990000;    6.842000;   77.942000
 5; 98.4;   12.983000;    6.439800;   83.175000
 5;100.8;   33.866000;    5.884600;   75.858000
 5;103.2;   93.903000;    6.092200;   78.229000
 5;105.6;  145.680000;    6.775100;   97.485000
 5;108.0;    9.581800;    6.713500;  114.140000
 5;110.4;  -82.324000;    5.579900;  106.880000
 5;112.8;  -16.243000;    4.868900;   93.455000
 5;115.2;   58.550000;    5.070900;   97.453000
 5;117.6;   15.364000;    5.137800;  113.060000
 5;120.0; -146.430000;    4.037000;  111.220000
 5;122.4; -121.870000;    2.668800;   89.060000
 5;124.8;  -57.030000;    2.164700;   76.005000
 5;127.2;  -11.740000;    2.252800;   80.585000
 5;129.6;  -93.737000;    1.773000;   86.841000
 5;132.0; -210.410000;    0.414940;   72.438000
 5;134.4; -163.350000;   -1.001400;   45.577000
 5;136.8; -137.620000;   -1.848600;   26.245000
 5;139.2; -124.930000;   -2.326600;   13.942000
 5;141.6; -119.320000;   -2.649600;    5.503000
 5;144.0; -118.560000;   -2.940800;   -1.390800
 5;146.4; -122.450000;   -3.329900;   -8.839600
 5;148.8; -132.160000;   -3.864600;  -18.372000
 5;151.2; -153.280000;   -4.732400;  -33.744000
 5;153.6; -196.550000;   -5.771600;  -58.057000
 5;156.0; -110.070000;   -6.234300;  -82.276000
 5;158.4;   -0.302080;   -5.561800;  -85.653000
 5;160.8;  -34.518000;   -4.913500;  -76.541000
 5;163.2; -100.420000;   -5.215600;  -79.615000
 5;165.6; -157.000000;   -5.966500; -101.040000
 5;168.0;    6.758400;   -5.722700; -117.570000
 5;170.4;   90.844000;   -4.342600; -107.420000
 5;172.8;    9.727300;   -3.672000;  -93.624000
 5;175.2;  -72.126000;   -3.974400; -100.070000
 5;177.6;   -5.152700;   -3.946800; -116.860000
 5;180.0;  169.830000;   -2.668300; -112.400000
 5;182.4;  118.040000;   -1.251200;  -88.079000
 5;184.8;   50.651000;   -0.824760;  -76.131000
 5;187.2;    8.918700;   -0.935290;  -82.565000
 5;189.6;  108.850000;   -0.340450;  -88.391000
 5;192.0;  214.090000;    1.078900;  -71.417000
 5;194.4;  161.330000;    2.435800;  -43.841000
 5;196.8;  136.600000;    3.189700;  -25.039000
 5;199.2;  124.620000;    3.614300;  -13.187000
 5;201.6;  119.510000;    3.891700;   -5.078100
 5;204.0;  119.160000;    4.169900;    1.748800
 5;206.4;  123.450000;    4.541100;    9.368000
 5;208.8;  133.950000;    5.082100;   19.279000
 5;211.2;  156.760000;    5.947700;   35.497000
 5;213.6;  200.730000;    6.948000;   60.656000
 5;216.0;   90.765000;    7.274400;   83.410000
 5;218.4;   -2.340000;    6.503300;   84.383000
 5;220.8;   41.088000;    5.865500;   75.672000
 5;223.2;  106.690000;    6.126900;   80.622000
 5;225.6;  146.520000;    6.731500;  102.570000
 5;228.0;  -19.595000;    6.299400;  116.630000
 5;230.4;  -83.242000;    5.032800;  105.070000
 5;232.8;   -4.064100;    4.506000;   92.591000
 5;235.2;   69.426000;    4.754600;   99.966000
 5;237.6;   -9.309200;    4.547800;  114.880000
 5;240.0; -165.620000;    3.253900;  108.220000
 5;242.4; -109.980000;    1.883900;   85.081000
 5;244.8;  -47.258000;    1.626300;   74.958000
 5;247.2;  -18.031000;    1.636700;   81.227000
 5;249.6; -122.290000;    0.982890;   84.725000
 5;252.0; -201.240000;   -0.356880;   67.031000
 5;254.4; -156.310000;   -1.542800;   40.975000
 5;256.8; -133.960000;   -2.205600;   23.213000
 5;259.2; -122.840000;   -2.582000;   11.771000
 5;261.6; -118.090000;   -2.857900;    3.703300
 5;264.0; -117.920000;   -3.079400;   -3.160900
 5;266.4; -122.400000;   -3.405000;  -10.897000
 5;268.8; -132.820000;   -3.891900;  -20.986000
 5;271.2; -154.580000;   -4.608500;  -37.101000
 5;273.6; -188.100000;   -5.392200;  -61.028000
 5;276.0;  -88.388000;   -5.590900;  -81.649000
 5;278.4;   -7.555000;   -4.970700;  -82.867000
 5;280.8;  -45.160000;   -4.503500;  -76.037000
 5;283.2; -104.200000;   -4.757500;  -81.652000
 5;285.6; -125.680000;   -5.214500; -101.540000
 5;288.0;   16.964000;   -4.750400; -113.490000
 5;290.4;   68.599000;   -3.697000; -103.470000
 5;292.8;    1.045600;   -3.186200;  -93.147000
 5;295.2;  -58.109000;   -3.315400; -100.090000
 5;297.6;   14.337000;   -3.138400; -112.880000
 5;300.0;  146.940000;   -1.971900; -106.500000
 5;302.4;  106.060000;   -0.922590;  -85.807000
 5;304.8;   49.529000;   -0.508490;  -76.166000
 5;307.2;   26.916000;   -0.430820;  -80.926000
 5;309.6;  119.400000;    0.147960;  -83.100000
 5;312.0;  190.940000;    1.301800;  -66.625000
 5;314.4;  154.990000;    2.373800;  -42.092000
 5;316.8;  133.650000;    3.029900;  -24.644000
 5;319.2;  122.760000;    3.416700;  -13.047000
 5;321.6;  118.070000;    3.684800;   -4.796100
 5;324.0;  117.830000;    3.937600;    2.202600
 5;326.4;  122.070000;    4.253900;   10.047000
 5;328.8;  132.010000;    4.695600;   20.136000
 5;331.2;  151.700000;    5.374900;   35.728000
 5;333.6;  178.590000;    6.094400;   58.393000
 5;336.0;   95.769000;    6.333000;   78.255000
 5;338.4;   16.863000;    5.875200;   81.038000
 5;340.8;   43.551000;    5.469300;   75.356000
 5;343.2;   97.033000;    5.668000;   80.003000
 5;345.6;  119.930000;    6.105300;   98.210000
 5;348.0;   -2.941100;    5.793500;  110.470000
 5;350.4;  -63.463000;    4.862600;  102.660000
 5;352.8;   -7.191000;    4.299100;   92.550000
 5;355.2;   49.048000;    4.352100;   97.557000
 5;357.6;   -6.868800;    4.180300;  109.560000
 5;360.0; -131.580000;    3.245300;  105.300000
 6;  0.0;  -96.660000;   -0.036131;   81.912000
 6;  2.4;  -39.906000;   -0.438290;   74.055000
 6;  4.8;  -18.817000;   -1.061500;   79.957000
 6;  7.2; -116.540000;   -2.159300;   80.986000
 6;  9.6; -188.680000;   -3.352000;   62.831000
 6; 12.0; -152.020000;   -4.152900;   38.233000
 6; 14.4; -132.310000;   -4.616300;   21.513000
 6; 16.8; -122.580000;   -4.933700;   10.718000
 6; 19.2; -118.810000;   -5.186500;    2.908100
 6; 21.6; -119.350000;   -5.429600;   -3.862300
 6; 24.0; -124.670000;   -5.719300;  -11.742000
 6; 26.4; -135.930000;   -6.076700;  -22.126000
 6; 28.8; -158.720000;   -6.444900;  -38.442000
 6; 31.2; -194.370000;   -6.519600;  -62.184000
 6; 33.6;  -98.993000;   -6.071100;  -81.935000
 6; 36.0;  -15.153000;   -5.417300;  -82.236000
 6; 38.4;  -50.694000;   -5.098700;  -75.374000
 6; 40.8; -110.500000;   -5.031900;  -81.381000
 6; 43.2; -143.160000;   -4.678300; -101.770000
 6; 45.6;    4.683100;   -3.784000; -113.370000
 6; 48.0;   63.965000;   -2.888600; -102.470000
 6; 50.4;   -4.548000;   -2.524500;  -92.098000
 6; 52.8;  -72.967000;   -2.245200;  -99.908000
 6; 55.2;   -1.017900;   -1.359500; -113.400000
 6; 57.6;  144.660000;   -0.073098; -106.210000
 6; 60.0;  103.550000;    0.838750;  -84.366000
 6; 62.4;   43.344000;    1.248000;  -75.061000
 6; 64.8;   11.708000;    1.730400;  -81.157000
 6; 67.2;  108.330000;    2.809600;  -83.897000
 6; 69.6;  197.250000;    4.049700;  -66.071000
 6; 72.0;  155.530000;    4.910400;  -40.399000
 6; 74.4;  134.120000;    5.432800;  -22.999000
 6; 76.8;  123.800000;    5.782600;  -11.934000
 6; 79.2;  119.820000;    6.055200;   -4.137600
 6; 81.6;  120.280000;    6.323700;    2.575500
 6; 84.0;  125.400000;    6.665700;   10.258000
 6; 86.4;  136.780000;    7.082500;   20.447000
 6; 88.8;  160.550000;    7.538800;   36.826000
 6; 91.2;  204.910000;    7.707500;   61.454000
 6; 93.6;  103.120000;    7.291200;   83.020000
 6; 96.0;    8.263400;    6.596700;   83.042000
 6; 98.4;   49.093000;    6.309100;   74.674000
 6;100.8;  114.810000;    6.298300;   80.564000
 6;103.2;  163.210000;    5.995500;  102.990000
 6;105.6;   -8.978200;    4.990300;  116.310000
 6;108.0;  -75.886000;    3.985400;  103.550000
 6;110.4;    4.408200;    3.612000;   91.472000
 6;112.8;   85.360000;    3.389500;  100.200000
 6;115.2;    4.816100;    2.439200;  115.660000
 6;117.6; -164.070000;    1.009800;  107.620000
 6;120.0; -105.150000;    0.085599;   83.494000
 6;122.4;  -39.250000;   -0.285940;   74.160000
 6;124.8;   -1.948200;   -0.821770;   82.099000
 6;127.2; -111.750000;   -2.058500;   85.881000
 6;129.6; -208.320000;   -3.385900;   66.449000
 6;132.0; -156.880000;   -4.235400;   39.087000
 6;134.4; -134.930000;   -4.698100;   21.541000
 6;136.8; -124.480000;   -4.990500;   10.624000
 6;139.2; -120.490000;   -5.230200;    3.033000
 6;141.6; -121.020000;   -5.496100;   -3.559300
 6;144.0; -126.520000;   -5.826500;  -11.182000
 6;146.4; -138.640000;   -6.230500;  -21.444000
 6;148.8; -164.550000;   -6.701400;  -38.449000
 6;151.2; -218.480000;   -6.794400;  -64.486000
 6;153.6;  -92.089000;   -6.226400;  -86.969000
 6;156.0;    2.520600;   -5.441900;  -85.032000
 6;158.4;  -50.048000;   -5.155900;  -75.221000
 6;160.8; -120.130000;   -5.159200;  -81.641000
 6;163.2; -174.410000;   -4.666300; -105.750000
 6;165.6;   19.498000;   -3.499500; -119.080000
 6;168.0;   81.117000;   -2.521500; -104.330000
 6;170.4;   -9.200000;   -2.264200;  -91.991000
 6;172.8;  -97.844000;   -2.011100; -102.460000
 6;175.2;    0.789080;   -0.897950; -118.830000
 6;177.6;  180.520000;    0.563560; -108.860000
 6;180.0;  103.030000;    1.372300;  -83.262000
 6;182.4;   34.651000;    1.665100;  -74.679000
 6;184.8;    0.598480;    2.187100;  -83.831000
 6;187.2;  122.580000;    3.532900;  -87.214000
 6;189.6;  209.790000;    4.824500;  -66.010000
 6;192.0;  156.110000;    5.600800;  -38.215000
 6;194.4;  134.590000;    5.995500;  -20.992000
 6;196.8;  124.610000;    6.269900;  -10.395000
 6;199.2;  120.800000;    6.501400;   -2.921400
 6;201.6;  121.720000;    6.741200;    3.662300
 6;204.0;  127.530000;    7.055900;   11.421000
 6;206.4;  140.110000;    7.433500;   22.036000
 6;208.8;  167.540000;    7.822600;   39.668000
 6;211.2;  221.780000;    7.759100;   66.369000
 6;213.6;   78.232000;    7.092900;   87.283000
 6;216.0;   -1.964300;    6.362200;   83.690000
 6;218.4;   55.956000;    6.151200;   74.678000
 6;220.8;  126.840000;    6.140000;   82.940000
 6;223.2;  157.990000;    5.553700;  107.230000
 6;225.6;  -32.652000;    4.370000;  117.610000
 6;228.0;  -71.432000;    3.429400;  101.760000
 6;230.4;   14.876000;    3.167700;   91.126000
 6;232.8;   92.536000;    2.780100;  102.350000
 6;235.2;  -17.967000;    1.571400;  116.210000
 6;237.6; -170.720000;    0.170740;  104.350000
 6;240.0;  -95.602000;   -0.592500;   80.545000
 6;242.4;  -30.907000;   -0.910270;   73.714000
 6;244.8;  -11.389000;   -1.540900;   82.398000
 6;247.2; -137.580000;   -2.809800;   83.244000
 6;249.6; -196.950000;   -3.974400;   61.647000
 6;252.0; -151.470000;   -4.678700;   35.608000
 6;254.4; -131.700000;   -5.065900;   19.299000
 6;256.8; -122.070000;   -5.302600;    9.052400
 6;259.2; -119.030000;   -5.509900;    1.612100
 6;261.6; -120.080000;   -5.732400;   -5.029700
 6;264.0; -126.020000;   -6.025200;  -12.940000
 6;266.4; -138.640000;   -6.391900;  -23.790000
 6;268.8; -165.220000;   -6.733100;  -41.412000
 6;271.2; -205.980000;   -6.689500;  -66.894000
 6;273.6;  -73.643000;   -6.084900;  -85.497000
 6;276.0;   -7.326300;   -5.387000;  -82.297000
 6;278.4;  -58.111000;   -5.131200;  -75.173000
 6;280.8; -122.660000;   -5.023700;  -83.703000
 6;283.2; -135.390000;   -4.450100; -105.680000
 6;285.6;   27.320000;   -3.345600; -114.410000
 6;288.0;   59.915000;   -2.435600; -100.700000
 6;290.4;  -15.467000;   -2.102500;  -91.928000
 6;292.8;  -78.180000;   -1.676500; -102.220000
 6;295.2;   21.587000;   -0.580550; -114.170000
 6;297.6;  152.810000;    0.705450; -103.230000
 6;300.0;   93.699000;    1.485900;  -81.533000
 6;302.4;   34.619000;    1.879800;  -74.754000
 6;304.8;   19.578000;    2.494800;  -81.756000
 6;307.2;  131.460000;    3.663200;  -81.772000
 6;309.6;  190.090000;    4.762500;  -61.761000
 6;312.0;  150.930000;    5.486900;  -36.918000
 6;314.4;  131.850000;    5.899500;  -20.698000
 6;316.8;  122.610000;    6.156400;  -10.256000
 6;319.2;  119.180000;    6.389400;   -2.641300
 6;321.6;  120.110000;    6.602300;    4.133400
 6;324.0;  125.760000;    6.889400;   12.130000
 6;326.4;  137.710000;    7.213900;   22.868000
 6;328.8;  161.860000;    7.544000;   39.841000
 6;331.2;  195.080000;    7.544400;   63.954000
 6;333.6;   86.201000;    7.040600;   82.276000
 6;336.0;   15.115000;    6.410300;   80.993000
 6;338.4;   56.079000;    6.116500;   74.699000
 6;340.8;  115.520000;    6.007400;   82.181000
 6;343.2;  131.560000;    5.539900;  102.520000
 6;345.6;  -14.859000;    4.573200;  111.900000
 6;348.0;  -57.741000;    3.699000;  100.160000
 6;350.4;    9.808300;    3.334600;   91.132000
 6;352.8;   69.455000;    2.989900;   99.619000
 6;355.2;  -11.955000;    2.054900;  111.290000
 6;357.6; -141.030000;    0.823820;  102.550000
 6;360.0;  -96.551000;   -0.036131;   81.899000
 7;  0.0;  -21.437000;   -2.914700;   74.500000
 7;  2.4;  -67.168000;   -3.956100;   82.908000
 7;  4.8; -210.660000;   -5.630800;   74.478000
 7;  7.2; -177.740000;   -7.295900;   50.077000
 7;  9.6; -146.650000;   -8.428000;   28.809000
 7; 12.0; -132.260000;   -9.069900;   15.981000
 7; 14.4; -125.220000;   -9.431400;    7.379900
 7; 16.8; -122.980000;   -9.669300;    0.622820
 7; 19.2; -124.990000;   -9.851900;   -5.847800
 7; 21.6; -132.180000;  -10.090000;  -14.242000
 7; 24.0; -147.570000;  -10.455000;  -26.573000
 7; 26.4; -181.580000;  -10.912000;  -47.110000
 7; 28.8; -161.360000;  -10.963000;  -72.601000
 7; 31.2;  -24.205000;   -9.970200;  -82.502000
 7; 33.6;  -18.585000;   -8.481800;  -74.595000
 7; 36.0;  -78.632000;   -7.652100;  -72.307000
 7; 38.4; -147.270000;   -7.429500;  -88.234000
 7; 40.8;  -48.695000;   -6.797400; -109.620000
 7; 43.2;   84.642000;   -5.062900; -108.300000
 7; 45.6;   38.967000;   -3.348200;  -92.210000
 7; 48.0;  -38.948000;   -2.530500;  -90.878000
 7; 50.4;  -49.482000;   -1.923700; -106.900000
 7; 52.8;  101.980000;   -0.559640; -113.600000
 7; 55.2;  155.440000;    1.587400;  -94.071000
 7; 57.6;   81.081000;    2.989900;  -75.058000
 7; 60.0;   20.537000;    3.710200;  -75.230000
 7; 62.4;   56.516000;    4.654600;  -85.041000
 7; 64.8;  217.390000;    6.285200;  -78.296000
 7; 67.2;  184.700000;    7.965200;  -53.397000
 7; 69.6;  149.480000;    9.204900;  -30.447000
 7; 72.0;  134.240000;    9.846800;  -17.392000
 7; 74.4;  126.650000;   10.255000;   -8.488900
 7; 76.8;  124.280000;   10.513000;   -1.841300
 7; 79.2;  126.080000;   10.731000;    4.415000
 7; 81.6;  133.320000;   11.011000;   12.800000
 7; 84.0;  149.190000;   11.444000;   25.179000
 7; 86.4;  185.480000;   12.026000;   45.778000
 7; 88.8;  178.470000;   12.247000;   72.998000
 7; 91.2;   19.697000;   11.283000;   84.008000
 7; 93.6;   12.867000;    9.769100;   74.772000
 7; 96.0;   78.873000;    8.960000;   71.329000
 7; 98.4;  158.750000;    8.875900;   88.190000
 7;100.8;   53.646000;    8.310600;  112.020000
 7;103.2;  -97.663000;    6.443900;  110.650000
 7;105.6;  -43.046000;    4.586600;   92.140000
 7;108.0;   41.852000;    3.843900;   90.144000
 7;110.4;   60.869000;    3.298000;  108.120000
 7;112.8; -120.620000;    1.597500;  115.310000
 7;115.2; -162.380000;   -0.535370;   94.135000
 7;117.6;  -79.745000;   -1.925600;   73.841000
 7;120.0;  -11.386000;   -2.531200;   75.147000
 7;122.4;  -50.281000;   -3.414700;   86.717000
 7;124.8; -239.110000;   -5.302300;   79.437000
 7;127.2; -185.900000;   -7.152100;   52.130000
 7;129.6; -149.830000;   -8.381700;   29.119000
 7;132.0; -134.190000;   -9.018000;   15.905000
 7;134.4; -126.660000;   -9.373900;    7.323300
 7;136.8; -124.380000;   -9.620700;    0.774330
 7;139.2; -126.440000;   -9.817500;   -5.551400
 7;141.6; -133.990000;  -10.107000;  -13.793000
 7;144.0; -150.800000;  -10.567000;  -26.291000
 7;146.4; -192.670000;  -11.160000;  -48.442000
 7;148.8; -175.500000;  -11.268000;  -77.038000
 7;151.2;   -6.927500;  -10.101000;  -86.741000
 7;153.6;  -12.983000;   -8.436300;  -75.388000
 7;156.0;  -83.413000;   -7.739100;  -72.228000
 7;158.4; -173.450000;   -7.796200;  -91.076000
 7;160.8;  -37.229000;   -7.224200; -115.720000
 7;163.2;  115.620000;   -5.257400; -111.780000
 7;165.6;   37.457000;   -3.493900;  -92.075000
 7;168.0;  -53.042000;   -2.900100;  -91.960000
 7;170.4;  -55.084000;   -2.363600; -111.970000
 7;172.8;  148.520000;   -0.471150; -117.120000
 7;175.2;  157.130000;    1.739000;  -92.984000
 7;177.6;   74.199000;    3.076600;  -73.601000
 7;180.0;    3.121700;    3.637400;  -76.884000
 7;182.4;   60.122000;    4.625100;  -88.720000
 7;184.8;  251.030000;    6.623200;  -78.712000
 7;187.2;  182.600000;    8.432700;  -50.281000
 7;189.6;  148.470000;    9.601100;  -27.905000
 7;192.0;  133.700000;   10.199000;  -15.332000
 7;194.4;  126.700000;   10.544000;   -7.088700
 7;196.8;  124.680000;   10.751000;   -0.691260
 7;199.2;  127.080000;   10.954000;    5.652300
 7;201.6;  135.220000;   11.237000;   14.111000
 7;204.0;  152.770000;   11.659000;   27.045000
 7;206.4;  197.000000;   12.249000;   49.785000
 7;208.8;  159.420000;   12.280000;   77.880000
 7;211.2;    3.530700;   11.042000;   85.936000
 7;213.6;   18.325000;    9.410700;   74.452000
 7;216.0;   87.601000;    8.741100;   72.494000
 7;218.4;  175.380000;    8.775500;   92.104000
 7;220.8;   24.964000;    8.034600;  115.190000
 7;223.2; -113.670000;    6.014500;  109.690000
 7;225.6;  -33.548000;    4.284200;   90.693000
 7;228.0;   54.226000;    3.643000;   91.400000
 7;230.4;   43.896000;    3.009700;  110.250000
 7;232.8; -152.020000;    1.182300;  113.560000
 7;235.2; -149.270000;   -0.883760;   90.155000
 7;237.6;  -71.403000;   -2.149600;   72.208000
 7;240.0;   -7.644800;   -2.747800;   75.605000
 7;242.4;  -67.976000;   -3.792200;   85.960000
 7;244.8; -236.630000;   -5.671600;   75.361000
 7;247.2; -178.330000;   -7.382500;   48.194000
 7;249.6; -146.380000;   -8.479600;   26.693000
 7;252.0; -132.140000;   -9.048300;   14.318000
 7;254.4; -125.400000;   -9.371300;    6.116800
 7;256.8; -123.510000;   -9.575200;   -0.389720
 7;259.2; -125.820000;   -9.750300;   -6.815700
 7;261.6; -133.850000;  -10.001000;  -15.379000
 7;264.0; -150.950000;  -10.383000;  -28.336000
 7;266.4; -191.160000;  -10.832000;  -50.407000
 7;268.8; -147.740000;  -10.731000;  -76.692000
 7;271.2;  -10.180000;   -9.509800;  -84.153000
 7;273.6;  -22.729000;   -7.988900;  -74.341000
 7;276.0;  -86.784000;   -7.304800;  -73.354000
 7;278.4; -159.540000;   -7.168500;  -91.691000
 7;280.8;  -24.242000;   -6.376200; -112.340000
 7;283.2;   96.445000;   -4.573000; -107.400000
 7;285.6;   29.002000;   -2.987100;  -90.887000
 7;288.0;  -50.295000;   -2.300500;  -92.190000
 7;290.4;  -34.399000;   -1.590600; -109.180000
 7;292.8;  141.270000;    0.118090; -111.640000
 7;295.2;  143.060000;    2.024300;  -90.219000
 7;297.6;   71.986000;    3.286000;  -73.406000
 7;300.0;   17.109000;    3.999600;  -75.769000
 7;302.4;   72.901000;    5.136600;  -84.325000
 7;304.8;  218.730000;    6.967400;  -74.219000
 7;307.2;  175.780000;    8.619000;  -48.903000
 7;309.6;  145.470000;    9.742600;  -27.983000
 7;312.0;  131.560000;   10.331000;  -15.572000
 7;314.4;  124.810000;   10.681000;   -7.223300
 7;316.8;  122.900000;   10.890000;   -0.582250
 7;319.2;  125.010000;   11.069000;    5.918000
 7;321.6;  132.860000;   11.283000;   14.552000
 7;324.0;  149.080000;   11.576000;   27.305000
 7;326.4;  184.500000;   11.947000;   48.414000
 7;328.8;  147.100000;   11.840000;   73.449000
 7;331.2;   19.420000;   10.712000;   81.515000
 7;333.6;   24.063000;    9.190300;   73.294000
 7;336.0;   83.275000;    8.408400;   72.265000
 7;338.4;  148.210000;    8.171700;   89.129000
 7;340.8;   35.997000;    7.471900;  109.220000
 7;343.2;  -84.926000;    5.782600;  106.260000
 7;345.6;  -33.193000;    4.163900;   90.742000
 7;348.0;   41.235000;    3.391700;   90.521000
 7;350.4;   37.642000;    2.675900;  105.940000
 7;352.8; -121.100000;    1.058700;  109.800000
 7;355.2; -144.460000;   -0.846420;   90.489000
 7;357.6;  -75.742000;   -2.196600;   73.389000
 7;360.0;  -21.687000;   -2.936400;   74.486000
